accel_x (m/s^2),accel_y (m/s^2),accel_z (m/s^2)
-1.035334012137289865e-02,-6.538790835529821382e-04,-1.002939674090279398e+00
3.241551437907749106e-02,-1.318135362281081663e-03,-9.748277629265325928e+00
9.020830405925098520e-04,2.649090392648932590e-02,-9.792359917018952586e+00
-2.189537199389850891e-02,1.287584577131749980e-02,-9.806063441474501374e+00
-5.163818612899457455e-03,2.567770087707810928e-02,-9.785965116668496222e+00
6.353988045195991564e-03,9.001732906701861298e-03,-9.801099533897652094e+00
-1.081498928270481930e-03,7.062607838872886346e-03,-9.775160290519671946e+00
-1.969785218477596717e-02,1.353034400342756696e-02,-9.785990649709306766e+00
-1.572466695475482554e-02,-1.082128667875670996e-02,-9.790378972293870774e+00
-1.760782082751691235e-02,5.831731184370889803e-03,-9.813822393862119853e+00
8.307170016955991304e-03,-1.175308327284633157e-02,-9.786105705654755127e+00
1.160925977969542999e-02,-8.975584896957012129e-03,-9.811652401606785645e+00
-4.135891386865184031e-03,-2.570385768204502125e-02,-9.777576188398484192e+00
-1.162794916815771892e-02,-1.280107199181016939e-02,-9.777996694962196145e+00
-1.438595310554777879e-02,-2.272390790914297076e-02,-9.794619041757561817e+00
-1.026944630339421405e-03,4.567935844934388478e-03,-9.777859666049915077e+00
2.046771415626405521e-02,-9.275513148894350829e-03,-9.793504020015395994e+00
7.613875959346302902e-03,-1.984810372561037969e-02,-9.791827466133552704e+00
-2.241161603903317739e-03,-6.952215014317675822e-03,-9.807914461205459844e+00
-1.989194804381792803e-02,4.185244514679799938e-03,-9.804667774644155287e+00
-1.968646947438227809e-03,9.863904301259752982e-03,-9.805475554147076167e+00
-7.781081295452111149e-03,-1.561773264407500693e-03,-9.800876968234883080e+00
3.953233319418018171e-02,7.209350192284113765e-03,-9.798334117812746769e+00
9.281999483403776188e-03,3.895848774523951417e-04,-9.807692502408382751e+00
-6.851569336602531500e-03,-2.280425152770197694e-02,-9.816657381992175857e+00
1.976647330900777738e-02,-1.114226632763834317e-02,-9.790571731623142426e+00
-7.238621485537142380e-03,1.525110117838693758e-03,-9.807326329060225945e+00
-3.386333839148963475e-03,-3.698835616615261598e-03,-9.820537190953006146e+00
7.033266595852462680e-03,-1.119957880257387581e-03,-9.783468775747920176e+00
-2.656460929800124812e-02,-9.836148150794709472e-03,-9.818203673425689004e+00
1.788964145220602736e-02,1.632875028257124370e-02,-9.783918329089262400e+00
3.450407344978884388e-03,2.003162006606210715e-02,-9.817196052271556894e+00
-1.753668086857709807e-02,2.196381780580898384e-04,-9.776818719528913348e+00
6.770446988672255452e-03,7.385835673906974812e-04,-9.790936100032585188e+00
3.673907979513470028e-03,-1.984639843110435134e-02,-9.777672181965417764e+00
-2.679295335508704093e-03,-1.466074474755863118e-02,-9.813815648002881531e+00
3.748536225718007014e-02,-2.012241910541245557e-02,-9.821929444778181306e+00
6.801426440219465221e-03,-1.636737029224564349e-02,-9.781806680842306534e+00
-3.751246401814619953e-03,-1.745771097575616465e-02,-9.831849625970079387e+00
-1.650098553673967280e-02,5.713498989994168255e-03,-9.791591678390934916e+00
-2.020645078591530586e-03,-1.484835737129171045e-02,-9.793570484224193962e+00
1.518891630618525793e-02,9.741349441389355462e-03,-9.807384715631755512e+00
3.423229534450521780e-04,-1.465401391126608908e-02,-9.814716119114182291e+00
-8.370882756022964347e-03,-7.057629528560390927e-03,-9.804797957882053439e+00
1.419438417826232894e-03,-6.639222029088081081e-03,-9.790272268643665399e+00
-1.143483805045020923e-02,1.600107853681291548e-02,-9.792740973403825322e+00
-3.044605256461311530e-03,1.392032227261328671e-02,-9.799033225050427731e+00
1.703843863242737039e-02,1.193273534556946354e-03,-9.790185000048575503e+00
-1.104396071203867999e-02,6.504071793794245770e-03,-9.811016439257270960e+00
1.573761054400871912e-02,-3.129560644671288555e-03,-9.805708982958917019e+00
-1.983337857452625516e-02,1.728567252285668782e-03,-9.805091573604009625e+00
-2.728065732347943056e-02,2.078467362938164840e-03,-9.785109794991930343e+00
1.413984478372811923e-02,-3.007101319572817733e-02,-9.794238320759303562e+00
-9.469103987059888233e-03,-7.792922147905575678e-03,-9.826472150213506396e+00
3.295059351806658814e-04,1.807833504728242197e-02,-9.767621226207797491e+00
-2.124588596238096219e-02,5.795340078350184800e-04,-9.804264529854131993e+00
9.538841798243210407e-03,9.223089555251317434e-03,-9.809435556719130034e+00
-2.260765243741317404e-02,-1.635759839847473335e-02,-9.783649840779384377e+00
7.881380198166858253e-03,-1.788936505295272723e-03,-9.784016515054762664e+00
-9.540248424339327002e-03,1.231103051494628325e-03,-9.804884113322231087e+00
1.591573378323176899e-02,-2.156058391486390460e-02,-9.796643977457719643e+00
5.410854072976280064e-03,-1.536659008457819976e-02,-9.786968828815583166e+00
-1.218590240942483277e-03,1.124445134024844133e-02,-9.824813631617658416e+00
-7.799420759958226174e-03,-1.710923189861894914e-02,-9.794579016823387718e+00
-2.951798073087780888e-03,-6.269699614372006499e-03,-9.801841397130209188e+00
-2.139260960098588946e-02,-1.018223265599793592e-02,-9.782967684578984802e+00
1.314270704941319749e-02,9.072512008023171995e-03,-9.770228068408032485e+00
-1.011257829869776671e-02,1.041794989022322947e-02,-9.793464834682479747e+00
5.463978884638679562e-03,1.592341358938619694e-02,-9.786739345867333739e+00
1.834087442356557851e-02,-7.603913377736089274e-03,-9.781113443594938062e+00
2.541913829592686025e-02,-4.504656597704754725e-03,-9.810073092605220424e+00
-1.021529294231110149e-02,5.634611769182187001e-03,-9.797908959145054553e+00
6.942236141554996090e-03,1.402578097172855337e-02,-9.812530088508973236e+00
-1.886223398148844169e-02,-9.041752971940365119e-03,-9.791297740535860328e+00
-6.570141204984194377e-03,3.624253053403560937e-02,-9.775125650419846934e+00
-3.876660186886564385e-02,-8.002927818132271956e-03,-9.798653520675053130e+00
2.661000011806771010e-02,-1.961457580646182308e-02,-9.791234859358809217e+00
1.352624852617541860e-02,1.179236352567584849e-02,-9.770458250994806804e+00
-1.461810826944666625e-03,1.053033595304079563e-02,-9.816507490199759545e+00
-1.451160130819393983e-02,-1.620836236664769184e-02,-9.797520425429050661e+00
4.127133690411927992e-03,-2.901112581287893649e-02,-9.796516768528867658e+00
8.360693335399361700e-03,-2.437567021320757952e-03,-9.770299129358228640e+00
-1.344778154788078134e-02,-1.359606498236212366e-02,-9.801681514303286491e+00
6.046536602658156810e-03,-5.527297303624582967e-04,-9.815700334125899928e+00
-1.729714995870662228e-02,-3.939703256284021043e-03,-9.788121584377011075e+00
-3.784735124421265140e-02,2.792349824179868670e-02,-9.815693331821561785e+00
4.244324235070968607e-03,1.416826901602092487e-02,-9.776090181307688809e+00
-1.486815736785753600e-02,-1.143522098300898959e-02,-9.775324716709029360e+00
4.701645650415114952e-03,1.660331152403188640e-02,-9.780855702161986187e+00
-6.941628970446275457e-03,2.139860097480842174e-02,-9.785942139885364099e+00
-4.013454385622106796e-03,-1.711273676724061471e-02,-9.795657972792257695e+00
-1.340127072230069133e-02,1.017648151357803538e-02,-9.785116959106172629e+00
1.566425416421155349e-03,1.523352075923126679e-03,-9.788913126790625086e+00
-5.952751558843862728e-03,2.342005219942773497e-03,-9.789273972136488311e+00
-3.945906435455262887e-03,-1.281380545555328883e-02,-9.794529903339274313e+00
1.720870342297247182e-02,2.350564157857744710e-02,-9.790716468213213730e+00
-6.357440197577975474e-03,2.258946012038329058e-03,-9.776045087924323695e+00
8.595027341190907000e-03,8.147851545363481163e-03,-9.790287991249339683e+00
2.424719820503139570e-02,1.687601410021975779e-02,-9.794291314231839962e+00
1.598654978357565495e-02,-7.669811690094819299e-03,-9.773045496813431043e+00
1.221786253785673952e-02,-7.714363405660255510e-03,-9.794762506009519143e+00
1.502051355722048946e-02,-2.372236792503236436e-03,-9.790455262612772103e+00
3.655565309441353994e-02,-6.147971252908454500e-04,-9.795452848840147553e+00
-2.606533496629459545e-02,6.037732156768825867e-03,-9.809652159596845777e+00
2.132918400827956903e-02,-1.098935609398592542e-02,-9.808125299574021128e+00
2.409114804379237917e-02,7.150921384561602367e-03,-9.811107481392165042e+00
1.109289946428366515e-02,3.239281910656830431e-04,-9.776331431105667491e+00
5.787023561483854717e-03,-6.503866951213129605e-03,-9.793386335533178055e+00
1.655602573646917236e-02,2.567422703888509739e-04,-9.786769595335147898e+00
-4.650081829207329889e-03,1.889862601612338558e-02,-9.795088511254061103e+00
2.678589967928130325e-02,5.714355926047891537e-04,-9.788947378946561528e+00
-3.831861502334860982e-03,-1.351454210723786881e-02,-9.806167006996677316e+00
-2.573024351490134452e-03,8.845282326679880514e-03,-9.763766997212616872e+00
-2.840904657408995643e-02,1.488479282592040931e-02,-9.788258763205142543e+00
-6.290612258838751761e-03,2.760175431757581638e-03,-9.782859941825901018e+00
1.282293371721146200e-02,-1.425036906446026756e-02,-9.791204949508626854e+00
3.026711168011529673e-03,-1.435241019493111586e-02,-9.795712466534551410e+00
-1.495360363960386921e-02,5.539745913763981580e-03,-9.814680459088338083e+00
3.211193243779232251e-03,-5.103062451208527361e-04,-9.812857238037091534e+00
-7.347330798340407677e-03,1.511891112544375311e-02,-9.772790374343104602e+00
6.817316437776986884e-03,2.626773473415187042e-03,-9.817226553078706175e+00
-7.539954913180315840e-03,2.848430677866782990e-04,-9.789005185364619166e+00
-1.233813109749640549e-02,-9.322460583652041055e-03,-9.786284451142428509e+00
-2.213451977870028661e-02,1.090608564296094256e-02,-9.803329714147505314e+00
2.348677209657298870e-02,5.101485378463941830e-03,-9.804472498219054089e+00
-1.349449180901158771e-02,-1.605087196241084674e-02,-9.786318057588056618e+00
-2.210958032006290694e-02,2.890604448928823546e-03,-9.791432692199299126e+00
-3.500018474784207315e-03,-1.873459177374807438e-02,-9.779045816796164914e+00
2.039856430404769598e-03,-7.646180480818925290e-03,-9.790744818560991547e+00
3.104257443751100125e-03,3.150440978693865024e-02,-9.818278911010963839e+00
-1.145551513803241134e-02,7.763329209204550621e-03,-9.808245929486883341e+00
-1.721960409927618136e-03,1.735272774971655455e-02,-9.814423331385533800e+00
-2.211651659859700109e-02,1.638668547782122509e-02,-9.808845879556814751e+00
-8.592408790490620174e-03,1.719995038947428473e-02,-9.808910474612726915e+00
-1.346433685710082644e-02,4.689079618098956209e-03,-9.799234920947412775e+00
1.890423151890609568e-02,1.991880713241818424e-02,-9.796584629191444904e+00
4.157706598311725413e-03,1.050588947344140850e-02,-9.815252239939761481e+00
3.316544727176287764e-03,7.718124424191396236e-03,-9.797079230048199250e+00
-8.891257601041603273e-03,3.419766712274328792e-03,-9.765668363208522607e+00
1.551118486122958062e-03,2.113544049237355699e-02,-9.784973682072784840e+00
-2.457196770195171215e-02,1.490651021712581341e-02,-9.803237330393601567e+00
-5.514991624114396786e-03,1.215662529517440305e-02,-9.774666391203822968e+00
6.971935709455194530e-03,3.444211162348265014e-03,-9.800776002978436097e+00
1.328428317842304980e-02,-4.004466008863531365e-03,-9.791898342455153781e+00
-1.871583082105257936e-02,1.835102355089996166e-03,-9.786600866744588956e+00
-2.619611543907515716e-02,-8.889481447862380287e-03,-9.818466838053851120e+00
-3.101019813294986910e-05,6.739411902344983295e-03,-9.782448216494952220e+00
-1.038100533941616055e-02,-1.630924314431740586e-03,-9.811231526165096639e+00
1.396104048943467776e-03,-1.633001710224020811e-02,-9.799558217811348726e+00
7.388827766538686413e-03,-1.587320085907439199e-02,-9.788031026430827453e+00
-7.333252657197339257e-04,9.661428372497043310e-03,-9.798823509623213468e+00
3.000817707596208084e-02,2.432950893511931674e-03,-9.799435215316275816e+00
-6.987264983571536692e-03,9.693566477121065995e-04,-9.781170684125275017e+00
-2.029206738431454590e-02,4.139699231430834722e-03,-9.790346262699479496e+00
-3.200310015124291363e-02,-1.549321435215627631e-02,-9.799066055302299461e+00
-1.509958481478960654e-02,-1.037652360272158913e-03,-9.806958534688533291e+00
1.307824574795368386e-02,-7.012639797951466386e-03,-9.794529346798897862e+00
-1.169140592797619435e-02,4.994410370146789646e-04,-9.797892405065049104e+00
-4.109442452685443427e-03,-1.414537031721401113e-02,-9.781629426633633884e+00
-1.906073139230799948e-02,-8.934815212481541508e-03,-9.795408079161578740e+00
-1.018446293346983271e-02,-2.586151440531888820e-03,-9.782260928145245060e+00
-1.745592471016474759e-02,1.532607236751080959e-02,-9.786045013591603947e+00
1.648243780522189519e-02,-1.810862759120340088e-02,-9.826918461371214164e+00
-1.152253193117982848e-02,-3.144516316604943629e-03,-9.792214244234394016e+00
9.905777606151256950e-03,-1.713930155373858538e-02,-9.788927859640775608e+00
1.041184605941497185e-02,1.432842224686295754e-03,-9.794199810540346718e+00
1.662940278016059731e-02,-1.436885192399931302e-02,-9.801043635430282563e+00
-2.843992714276981360e-03,4.435952999127582702e-03,-9.791629952715648955e+00
6.152857456247751676e-03,-5.918119461458387458e-03,-9.785654400367883810e+00
1.577230053181273919e-02,9.829287019760712951e-03,-9.797796496956925338e+00
1.680374932654959269e-02,5.267312661925256483e-03,-9.795055228959228089e+00
-2.931835077300290991e-03,-2.511046924353072668e-02,-9.806565937983311443e+00
-1.798271228878650999e-02,6.559163697726816226e-03,-9.782850873562946248e+00
-1.744305203513283947e-03,-1.514747700978130718e-02,-9.798661143336936163e+00
1.421475957028834605e-03,1.878747299685218364e-02,-9.791605619124496229e+00
-5.640619513693785787e-03,-2.244478351687418174e-03,-9.802282305998947010e+00
4.614833818776232187e-03,-1.814970737744651258e-02,-9.779601261036413362e+00
3.372709257979802921e-02,-2.769196127510123798e-02,-9.798526014844984644e+00
5.283533085971603947e-03,-2.657275696666900125e-04,-9.790257889600876950e+00
4.324963716938041948e-04,-1.645828670292855817e-02,-9.796736819521376205e+00
-5.741426955554935520e-03,1.054665928644536906e-03,-9.789784941910927074e+00
7.775978305009478841e-03,-1.008548740369598004e-02,-9.801503550459997882e+00
5.441659530218773133e-03,-2.459527727759555638e-02,-9.777506834612205822e+00
1.062962622953124436e-02,-1.917430702561694761e-02,-9.775683154596782387e+00
-4.289687265845372119e-03,-2.500414020829531958e-03,-9.766914444456135769e+00
-8.613633228112409917e-03,3.305750153281404591e-03,-9.783010926529270179e+00
7.152009337935730585e-03,7.600970139341049411e-03,-9.768754300225491960e+00
-7.721189031610220348e-03,-6.830647262721889837e-03,-9.800181162576301119e+00
3.162386273383601884e-03,7.851261706517089628e-03,-9.789372855409114393e+00
3.259583848455422164e-03,7.399046557361389082e-03,-9.795831097951792188e+00
-6.535207571068691809e-03,-2.161026328974145587e-03,-9.780438619024431901e+00
-1.713489610364777455e-02,-2.184786200701034631e-02,-9.792611240420644236e+00
-1.622087548289026515e-02,-3.275579972636006448e-02,-9.787775347478685717e+00
2.087344340334517517e-02,-2.019373864864682649e-02,-9.784919370502151992e+00
8.221380015786493994e-03,5.521830168045653055e-03,-9.803812226208936664e+00
1.477643891582132267e-02,-4.514848758755893310e-03,-9.777331955409948705e+00
3.083033310685587974e-02,-2.979130654071391812e-02,-9.797797876584494858e+00
1.707307996832763825e-02,-4.744677146955396732e-03,-9.786555103240907272e+00
6.581072937695234704e-04,-1.428053780771776013e-02,-9.799537606384054911e+00
4.910614740208400428e-03,9.674418265393737101e-03,-9.780432471121805804e+00
7.989094727899421697e-04,-2.229114331163647642e-02,-9.796667728647220130e+00
-1.978677505317518164e-03,2.470820936825584430e-02,-9.768956466828113250e+00
1.220253398752512569e-02,7.494704705357506380e-03,-9.799210974103576888e+00
2.172882899464240181e-02,-3.409364301408739778e-02,-9.785955408142282153e+00
7.672721607283590570e-04,-9.996939535758128659e-03,-9.777226404512701308e+00
-9.874820590529582998e-03,-1.062261618558878271e-03,-9.788004858157497878e+00
9.717859721237249310e-03,-2.342626815638502308e-02,-9.779544079043139604e+00
1.337549283671230632e-02,-1.033481201662880128e-02,-9.783947922457869595e+00
8.142040569655806595e-03,1.629544179504016817e-03,-9.786313393670829086e+00
-1.516902573674789104e-02,-1.239473801553341199e-02,-9.755861291064476859e+00
2.204007334912592292e-02,1.251547888294114036e-02,-9.764098552614719040e+00
1.605130247884787448e-02,6.838544426476418636e-04,-9.802289948869196579e+00
1.497015792132433236e-02,1.923694409653068510e-02,-9.783477606360531098e+00
4.745462503607071614e-03,-1.027192315709591405e-03,-9.775217918561937225e+00
-1.827527636618545698e-02,-1.680896227451663880e-02,-9.767071381458242385e+00
1.206781454005296985e-03,-1.382610690729624628e-02,-9.765899822202445790e+00
1.375082766047014578e-03,2.639062668790421659e-02,-9.765024981236750889e+00
-7.379498318394984817e-03,-4.668134195512318139e-03,-9.757222694052336109e+00
-1.104038920378952113e-02,-6.899985100424086554e-03,-9.792294477534250419e+00
1.619760578772289419e-02,7.534357740937885038e-03,-9.804854389616856736e+00
-1.387124030120381185e-02,-1.652757856572478756e-02,-9.782649346199551843e+00
7.866438706390950844e-03,5.773593595567111728e-03,-9.788859257471873576e+00
1.318386576091714127e-02,-2.199772940969522278e-02,-9.780095229872664220e+00
-1.538724826206043506e-02,6.578180672317171865e-03,-9.803240486436356704e+00
2.697748288835975783e-03,-3.694293684592249438e-02,-9.793602308014021318e+00
7.218040177420375486e-03,-1.566423386541519400e-02,-9.776968592276070069e+00
6.450147608657441980e-03,2.553063708484138057e-03,-9.790927192952784353e+00
-1.255047132083392247e-02,-7.408862392017621923e-03,-9.810645818241049199e+00
9.475744871722459328e-03,9.290986855424399060e-03,-9.779045755012766961e+00
9.696925968125349321e-03,-9.177544138746284580e-03,-9.798965274757655664e+00
-4.750086606610322455e-04,-1.244504290573999854e-02,-9.787268039561164201e+00
6.842921082023353460e-03,-1.828812614356831526e-02,-9.814214627102604283e+00
-7.645696490751645487e-03,7.340016726089162308e-04,-9.783057270288420426e+00
1.015690858135575268e-02,1.193442748115361614e-02,-9.791805966415934037e+00
7.522017518312828187e-03,2.221857198543320065e-03,-9.797182915787496782e+00
-1.610302263234254100e-02,5.807869864868460928e-03,-9.772754170107651461e+00
1.947730611187362126e-02,3.762069575567070397e-03,-9.794701284582520984e+00
-4.001083782803675076e-02,-1.114215068041377217e-03,-9.812072649550783510e+00
2.898233935355318432e-03,-1.599315760190426691e-02,-9.759824545352088876e+00
7.476418124430580722e-03,6.886825216075089309e-03,-9.794735325210790933e+00
6.251258966367042799e-03,9.727811739412444737e-04,-9.774814484837213158e+00
2.369137684121260835e-03,-1.497211773523444284e-02,-9.795216085846355725e+00
-3.472045258054144018e-03,2.256687846828686964e-02,-9.789916907839213422e+00
-5.582085793886144842e-04,1.358295156456030064e-02,-9.764871027252308266e+00
1.041449275446047762e-02,1.581588723468006774e-02,-9.777936347972007169e+00
-1.600504693618307744e-03,1.604535010912779350e-02,-9.759172301742090383e+00
-1.669152547493422262e-02,-3.378471396567780949e-02,-9.798164236584632647e+00
6.699991898532134740e-03,-5.842753191586666679e-03,-9.786656635116951719e+00
-6.096535105627547656e-04,-6.322162621606238798e-03,-9.771181938740678419e+00
9.479656965895699727e-03,7.322834483399829134e-03,-9.791611897419498334e+00
2.413363044407486335e-03,1.678604931741414091e-02,-9.780960028707223586e+00
-1.292066933588678808e-02,-1.426995769933686251e-02,-9.795364542264584529e+00
-7.325578204860684964e-03,4.590062028218393556e-03,-9.773488426604549417e+00
2.921621487023384409e-03,1.827211754199086630e-02,-9.806636722618797819e+00
3.956339088482767677e-03,-1.172948585028171092e-02,-9.766378770372496021e+00
5.809705132080159387e-03,1.043218558880473421e-02,-9.784602217038154137e+00
7.476172170771294354e-03,-5.799153016583705363e-03,-9.797242587265465374e+00
7.050979103690715490e-03,-1.200292438263135357e-02,-9.802266572687878821e+00
5.100973994025101779e-03,1.078976311306504079e-02,-9.789095613605116597e+00
-2.115965432992750889e-02,1.353394814030547955e-02,-9.781556820325404189e+00
1.466745944403693991e-02,1.168762445685542564e-02,-9.792156117871885002e+00
1.772275384251357751e-03,1.260018737987617099e-02,-9.762102569132949270e+00
1.053307122818711652e-02,2.087167077065030241e-02,-9.794678398771591077e+00
-5.684815183444932168e-03,-9.026398558341284378e-03,-9.775288688612651100e+00
2.241312716966447488e-02,2.101367661033888903e-02,-9.764308765118103750e+00
6.089495767847103933e-03,2.059230257803941824e-02,-9.779959592571659144e+00
1.315108595719767081e-03,5.335115968039857992e-03,-9.744561197596890878e+00
-2.827330586985849284e-02,-6.019351017847925436e-03,-9.782901843339686820e+00
2.472379246379799445e-02,-1.478086750034853479e-02,-9.761645656838418006e+00
1.545807159295307237e-02,1.635557587312550659e-02,-9.789566325448264550e+00
1.508441008164725788e-02,-1.826238040907147281e-02,-9.783819753994373869e+00
6.350045544417767286e-03,-2.052703223331652990e-02,-9.808910507814697866e+00
-1.355031283867259330e-02,-3.933499829039908968e-02,-9.771964305934128348e+00
4.057188575311324388e-03,-1.455995366599670618e-02,-9.797837761222641717e+00
-6.577359607912819546e-03,-1.220869889635579214e-02,-9.794771907802235944e+00
-1.785430281057875240e-02,-6.399420439771519829e-03,-9.779498196438986213e+00
7.766359191245142575e-03,-6.268485800497785969e-03,-9.774886328662665491e+00
9.979731103215809529e-04,4.810588287368428723e-03,-9.778673538088469286e+00
3.064021004320575253e-04,-8.559474091902247173e-03,-9.770643963160592804e+00
-6.221609634911974898e-04,1.394421746614861370e-03,-9.750670975058095991e+00
2.639180186992017355e-02,8.727937506559806102e-03,-9.785029842918252285e+00
1.677789516737028530e-02,-1.082840360872911606e-02,-9.787944600548353691e+00
-1.972812123875705009e-02,2.458197936713381673e-02,-9.798100725722928672e+00
9.729727115759315842e-03,1.420383900472800727e-02,-9.772229774261631974e+00
1.434616000240814676e-02,6.776749913546211215e-03,-9.778599355582676012e+00
2.431289447048283914e-03,8.968995715184006207e-03,-9.766755848956377051e+00
-1.734020080551811754e-02,1.752881999132277534e-03,-9.763895688347480117e+00
1.185493813843843669e-02,1.172058279930713806e-02,-9.791930198885845371e+00
1.031073476972591517e-02,-9.979862574948142849e-04,-9.774248833441244955e+00
2.538387602488681449e-02,-4.337017997328703432e-03,-9.795663923340088175e+00
-1.235519528169972368e-02,-2.719006215092427403e-02,-9.787358782378460020e+00
5.277864419170439844e-03,-7.402983280070619607e-03,-9.768680431937413644e+00
-5.282240880289989018e-03,-2.322158585997663102e-02,-9.771440165434199798e+00
2.878222121242810308e-02,4.418409865987564522e-03,-9.790491192688076438e+00
2.388114422829606173e-03,-9.461487209156283634e-03,-9.787639019626713122e+00
-2.188840317644655600e-02,-4.848983921738513059e-03,-9.779130471120160095e+00
6.800905684882199882e-03,1.558997661362812072e-02,-9.794504795000120723e+00
1.241153342265412934e-02,-2.711540216011118498e-02,-9.767789073237434394e+00
1.805516869737571611e-02,-1.538640596917100617e-02,-9.787795907508622051e+00
3.279414270395686771e-03,-3.721965524263422948e-02,-9.790725798076703512e+00
1.263619670722243224e-02,8.603920207653815294e-03,-9.778264548470296802e+00
-1.451729086452693829e-02,5.226717894362086642e-03,-9.755446284916443389e+00
-1.912807576619482072e-02,-9.377891967486716787e-03,-9.766233980972474527e+00
1.928271828424107937e-02,1.309307907088114696e-03,-9.777182026817593297e+00
1.098042890879494249e-02,-4.058804225609152078e-03,-9.779839378128267313e+00
2.644707964102721576e-02,1.203379435424492029e-02,-9.799707292770007072e+00
1.114412923108245961e-02,8.663427378891367520e-03,-9.754850632447952918e+00
-1.776779504362229530e-03,-1.182034646991571292e-02,-9.771655651432201495e+00
-9.656200925984922620e-03,-7.178583073797618723e-03,-9.809596459268178137e+00
-8.881344425846279464e-03,1.277348696872552050e-02,-9.767839968282832075e+00
-2.355348861979301468e-03,1.100892041460198138e-04,-9.779658604031379099e+00
-1.110918100275893293e-02,-2.996779443705376370e-02,-9.784820828903395551e+00
2.860480088630879686e-02,2.042743469712916121e-02,-9.778982624234538790e+00
2.122155557220160860e-02,6.110404338533499680e-03,-9.786642009858114832e+00
1.245008557649037589e-02,1.336870665242986984e-03,-9.774998333865895006e+00
-8.858840380726383350e-04,7.478179714803561556e-03,-9.779050239043042936e+00
-5.536772964400089869e-03,-1.093923698759758159e-02,-9.778263578497000452e+00
2.926685358581397264e-03,-1.329994491620467741e-02,-9.782045727596992535e+00
-1.692985972177507917e-02,-1.701843788692284200e-03,-9.802441076285781207e+00
8.110172092511414021e-03,1.091019215535641261e-02,-9.772789246315220169e+00
-1.087683184465278174e-02,2.132563516135492152e-02,-9.801628811628971150e+00
2.124544300916880388e-02,-8.611906039385663902e-03,-9.786020759697835913e+00
1.394797088240575487e-02,2.440753093450049715e-03,-9.770804292255563794e+00
-1.731905762227090029e-02,2.029072878493748053e-02,-9.778224362888172649e+00
-6.865651352004676668e-03,5.687658753902678083e-03,-9.792862002441607316e+00
-3.555050503136240707e-03,1.366971848468624684e-02,-9.783511321300435881e+00
-3.379663393781647679e-04,1.662286420770952428e-02,-9.766343857938968753e+00
-1.020849344326781039e-02,2.970899804666011015e-02,-9.787795569104270399e+00
-9.132618694521876107e-03,2.988066976902379809e-02,-9.790119992439276331e+00
1.668127304963899424e-02,7.836726301875460848e-03,-9.771502275921911007e+00
-7.786140224306487868e-03,-1.574948385662185493e-02,-9.786413416374729835e+00
7.525748258875255940e-03,-2.323516662155605816e-02,-9.790713708192850362e+00
1.189675395148595896e-02,-1.380474618206432684e-03,-9.791364009057824447e+00
-1.996632350301234815e-02,8.560822180720989438e-03,-9.776630583364877225e+00
-1.028012406306251687e-02,-3.910297831632042823e-03,-9.764957914649496473e+00
1.975411371353895384e-02,-2.921328472856495745e-02,-9.783752562767780603e+00
-3.575383591793997173e-03,8.274889380079041706e-03,-9.794841455111285455e+00
1.021889765190185737e-03,1.101487867451111068e-02,-9.794985437573361153e+00
-7.917117959484694378e-03,-1.163084426682754573e-02,-9.789426931625344608e+00
4.405433360842689328e-03,2.539654748838234173e-03,-9.801018040648358465e+00
-1.211027781552889877e-02,-2.341868771394444403e-03,-9.787066570323149861e+00
9.447616747330477710e-03,-1.602871981246237892e-02,-9.764795654499909716e+00
-3.146285929081664434e-03,2.245030319733563873e-02,-9.766926180034509741e+00
-7.140648697439805001e-03,1.189934013204809252e-02,-9.784740983027331751e+00
1.298274876503748357e-02,3.202032242141195778e-02,-9.777903108911900176e+00
-1.017903840375993484e-02,-2.163634182775587417e-03,-9.789329118608538494e+00
1.203014842798012449e-02,-4.359814490745227492e-03,-9.793913451809455495e+00
3.957037026211115364e-04,1.011768534231294314e-02,-9.785599351240938049e+00
5.255898435858958250e-04,8.049125819687434971e-03,-9.790193268199757881e+00
1.161931390498883608e-03,-9.892050815009578377e-03,-9.790856752419943021e+00
3.082633678703433980e-02,-9.960205564480018037e-03,-9.783949505547553827e+00
-1.775289661191159843e-02,5.220125191737180759e-03,-9.789874915779885001e+00
1.170438871653613211e-03,-1.155000644359220705e-03,-9.746125637187880386e+00
4.385246864632322966e-03,5.098618915933457625e-03,-9.767293948874165466e+00
-1.066347625566006242e-02,4.351435443994087007e-03,-9.790715527742635871e+00
1.191063784600920016e-02,8.380153843539864256e-03,-9.759383084999763369e+00
-1.028107897174419111e-02,1.432663673606244213e-02,-9.776271379320149890e+00
3.949254052086986072e-02,2.638474462804211301e-02,-9.797620874076837794e+00
1.081021074391900517e-02,-1.703539784397105350e-02,-9.763748227999059282e+00
-7.740676232001906555e-03,6.569746578609384803e-03,-9.817248163100437353e+00
9.657703692487805067e-03,2.154398899100319273e-02,-9.772565396436508678e+00
-3.014166408083288930e-03,-6.306470821132116947e-03,-9.790382632725020073e+00
1.069485062103580752e-03,1.008876212611488007e-03,-9.778209704161520577e+00
7.656366017769660262e-03,9.850999152023885708e-03,-9.788481775234870952e+00
-3.445117171424072564e-03,-1.177575052705948783e-02,-9.780776260439189684e+00
4.829850036675503028e-03,-1.900087980703431961e-02,-9.778378135697179729e+00
1.684084836925005962e-02,1.617442739229052462e-02,-9.794459930191591113e+00
6.550080384213912863e-04,2.007777048432502973e-02,-9.795585185208526724e+00
9.843482976007619095e-03,1.524495066014387029e-02,-9.789725136988874254e+00
-2.129568223822251444e-02,2.043252386216422301e-02,-9.772026767348577891e+00
2.546323487724891019e-02,-1.613315940398117251e-02,-9.778131839564018435e+00
-1.884066621841889652e-02,-2.641945986627780574e-02,-9.787197018380748403e+00
-7.550651213013002440e-04,-2.752332136514196344e-04,-9.798558029143583425e+00
1.876730208281941455e-03,9.661295466690216285e-03,-9.772752891633631478e+00
9.150756780293908821e-04,2.984180008101121242e-03,-9.784677815972921522e+00
-1.455683588003635516e-03,2.122792487405389741e-02,-9.792801908166124392e+00
-5.172444443422877410e-03,-1.019799630941304984e-02,-9.781992115852396807e+00
1.954423186076477761e-02,3.194061244824488582e-03,-9.785819862530917845e+00
1.620573547326590019e-03,-1.040273833065370745e-02,-9.779280833615027646e+00
1.787637218565711443e-03,6.700143616275038363e-03,-9.772344624511664080e+00
2.118405611280753734e-02,1.781360520680374052e-02,-9.753615708931947736e+00
-2.035507411942792319e-02,2.980458428922261056e-03,-9.756542069737383471e+00
-7.836686114016239851e-03,-1.885938021764095238e-02,-9.779844960630647677e+00
9.485715630956528810e-03,1.305022830772493980e-02,-9.794037555323679811e+00
-6.634203672403709943e-03,-1.835472231415317956e-02,-9.790421462790023455e+00
-4.041122845597717311e-02,2.057121591269976853e-03,-9.780791517057140894e+00
2.487592891648958068e-03,-1.813205639695227023e-02,-9.788962217227167528e+00
-2.687839165472619141e-03,-1.060185871791335423e-02,-9.784487134221331317e+00
-6.665009975034103321e-03,-1.173024894025090706e-02,-9.781811040534954316e+00
1.568418652047861694e-03,2.538965001124546955e-02,-9.760277731904626108e+00
-9.121185809874806510e-03,6.752843259901079517e-03,-9.773624602266769656e+00
-1.068952354131708082e-02,4.066696086438363264e-03,-9.782402604829496084e+00
7.328715784188377831e-03,5.309963487356089522e-03,-9.776533274590368805e+00
1.002757373106908517e-02,2.678863642167560524e-03,-9.758143640203467584e+00
-1.472065854006081483e-02,1.843224401088842251e-02,-9.782245574863669191e+00
6.305538804281000595e-03,5.306666184229745856e-03,-9.773331135090739252e+00
1.685349488984974956e-02,3.087913154113998068e-02,-9.766045533892802055e+00
1.615677031333013353e-02,3.897117278458130107e-02,-9.781867304739666480e+00
1.708771149094418657e-02,2.242998619191083690e-02,-9.776068896677569953e+00
-4.726804280969362608e-03,-2.311267143853502556e-03,-9.772756387047666138e+00
1.192264499669335939e-02,-1.301450091601981385e-02,-9.782593429919492323e+00
-9.335609625841304049e-03,-1.562975893639673847e-02,-9.775142414410330716e+00
4.124878850088049657e-04,-9.390024668187463980e-03,-9.783612211186957452e+00
-3.410633429512854864e-02,1.216824200459170995e-02,-9.803046625115603874e+00
-3.278133661401538487e-03,1.195976437166492226e-02,-9.780018716685045632e+00
4.588883777306923886e-03,3.103561608012046780e-02,-9.750952971341389386e+00
-3.137135458054250703e-02,8.327222934901958376e-03,-9.784957343336696312e+00
1.687730368922128396e-02,-1.680922201635129398e-02,-9.764660316399053741e+00
4.689756602721821023e-03,2.373916225064497815e-02,-9.778521045959930547e+00
3.040723551156932977e-03,1.584987504419716267e-02,-9.792928511977837758e+00
1.576157955900701207e-02,-3.531370598889037142e-03,-9.792057302970277988e+00
1.864476304743172214e-03,9.083354310579497964e-03,-9.764002264823774979e+00
2.635137193816406570e-02,-1.704837462760345514e-03,-9.781113294480269005e+00
-3.917555118387629209e-04,-1.067217541941723087e-02,-9.796467348602547531e+00
1.756394131852785732e-03,4.677606699442523816e-03,-9.786276790265267422e+00
1.910177477408253263e-02,2.549080310633101282e-02,-9.761305766163905773e+00
7.666213780563363792e-03,-1.145663369346417403e-02,-9.800258853830680295e+00
7.036804983633723753e-03,3.183494893422077199e-02,-9.772070672165376948e+00
1.870730551143300188e-03,-2.535784308429884192e-03,-9.784676644068497353e+00
1.108676145145476820e-02,1.689902006553024166e-02,-9.757995015553907692e+00
1.761351643359411120e-02,2.287142229186071157e-02,-9.762770349226382649e+00
-9.163914365682240132e-03,1.616042182915090018e-03,-9.797396893399373141e+00
-1.420177660244323348e-02,-1.178832627051868559e-02,-9.803544166724849518e+00
5.850117465950620049e-04,-2.729021217967126864e-04,-9.779724770248352073e+00
1.111887541690621643e-02,1.035205005124190461e-02,-9.777382891875943116e+00
-1.166814466320161871e-02,4.824430956031052278e-03,-9.760040965015676306e+00
-1.428059926086702562e-02,-8.717712895181906757e-03,-9.798995106091210161e+00
-2.079770219766743922e-02,-9.645170800017772300e-03,-9.783317398199489645e+00
1.226026885129190627e-02,-1.106454100852430865e-02,-9.779445783391294000e+00
-1.016783705629544995e-02,-2.303508461465956017e-02,-9.795121383410290150e+00
3.844602399532640827e-03,-9.941951016124212295e-03,-9.812187136932154274e+00
-5.189847684399624683e-03,6.516585218655327437e-03,-9.774561588803127421e+00
2.120798448329975702e-03,1.162614630755993625e-02,-9.753768197875654522e+00
-6.851999174981856372e-03,1.809642703883292819e-02,-9.798900461273795770e+00
-1.016687504481343651e-02,2.907963451595753368e-03,-9.786561040162824909e+00
4.592237210422572477e-03,-1.957875529104052478e-02,-9.766483177477022437e+00
9.277058871331185508e-03,1.710980664291940345e-02,-9.767557005823508831e+00
2.922015505514083053e-02,1.408613901337192349e-03,-9.773120140586206261e+00
2.129096697916534400e-02,-1.085023799275293410e-02,-9.770249690125009323e+00
4.955767550635343556e-03,6.730371008127708108e-04,-9.785261244762365251e+00
-1.111561963009531293e-02,1.380097917930208848e-02,-9.764775695090190055e+00
1.154298534355857088e-02,7.505117773481999321e-03,-9.764515914882876402e+00
-4.650003869773551568e-03,-8.915570338814973739e-03,-9.800643419518424437e+00
2.305608207974405716e-03,8.005419491449746296e-04,-9.795472801096398285e+00
2.352009670615550982e-02,-1.449642202701063864e-02,-9.765858666820564693e+00
-1.981616683341110019e-02,1.503319623903760609e-02,-9.762583614885555150e+00
3.127968894694559392e-03,-2.864556379209274965e-03,-9.767683828341118257e+00
2.774493525628040150e-02,-7.758336801886773354e-03,-9.768561313698523207e+00
1.752452537280901456e-03,-7.947595589643547537e-03,-9.785745427738193669e+00
3.448796905241913874e-02,1.492772974240283088e-02,-9.780121936433488372e+00
2.035849895659717912e-02,-2.383561224589846386e-02,-9.759066316745959924e+00
5.890444547302224262e-03,-2.212163889565557998e-03,-9.768091097523464938e+00
8.737987976906867044e-03,1.041262165548708513e-02,-9.754006711723693712e+00
4.343566875886340113e-03,5.906804969984939466e-03,-9.769492734349043417e+00
-1.925178016929591021e-03,9.330395540189705475e-04,-9.760121557220676536e+00
-2.147988132345855783e-02,3.931460778967346692e-03,-9.779435283278456126e+00
4.829437885613911859e-03,3.729645113274829803e-03,-9.759157171952898224e+00
1.976296603734400623e-02,1.658479657063933674e-02,-9.776564410801945826e+00
1.736780220230888655e-02,1.559609326427018397e-02,-9.756755701004756531e+00
4.188521476027163930e-04,5.111202915737744767e-03,-9.780854688338912695e+00
-1.939325613303600343e-02,-6.374673805205613095e-03,-9.780171780926695035e+00
-3.263947123769451184e-04,1.133282568733591684e-03,-9.773503611434833260e+00
-2.506900051006515258e-03,5.649640823110151262e-03,-9.781576705399361416e+00
-9.101228449045378407e-03,7.976452742824917223e-04,-9.804665834033428951e+00
3.241911932628954197e-03,9.289412473568238807e-03,-9.801050642704087323e+00
-2.475047047791296626e-02,-2.874140248425598523e-02,-9.795976227689955351e+00
-2.828393902302502039e-03,-7.912878350740738028e-04,-9.795341166893004825e+00
1.737258880356040355e-02,1.043306037473670615e-02,-9.772832754363760088e+00
8.093839736322666276e-03,1.050878572506342215e-02,-9.761941332199855381e+00
1.428414387860134707e-02,2.376593962556881878e-02,-9.768148533608892237e+00
1.077669075476412643e-02,3.184751839686893876e-02,-9.782009381464051856e+00
1.039431453240091847e-02,1.013883605856512153e-02,-9.763483529931095362e+00
1.578084977719585238e-02,-1.508221816882065851e-02,-9.786097582264339678e+00
1.494739854445812852e-03,-1.058125411700062447e-02,-9.787623914877173092e+00
6.593229706954557325e-03,1.060946018141432261e-03,-9.790736293085918973e+00
2.853383412885293277e-02,5.677983252752215153e-03,-9.777604501573538442e+00
2.150746151121388228e-02,1.397837332548237943e-02,-9.783795357121974234e+00
-8.483785186503872873e-05,1.482844898433185793e-03,-9.778847132546006904e+00
-1.713495410934270935e-02,-1.360450406115889382e-02,-9.759757684499243524e+00
-1.809886228872694194e-02,2.048766775128223888e-02,-9.785563718417902734e+00
-1.143043629866772118e-02,-9.821473412689116222e-04,-9.759676535922400475e+00
-9.564666568069452035e-03,-8.801624773881393943e-03,-9.800867320256481108e+00
6.332812852564704761e-03,-2.239916932918271930e-03,-9.772240376557281394e+00
1.969288179745744792e-03,-2.222668897948686800e-02,-9.753957194259506025e+00
-1.190204786800106058e-02,-2.188235479017308638e-03,-9.797524994738209259e+00
4.517636034461176321e-03,-3.901512471993779339e-03,-9.778844248213218293e+00
2.225700873851481354e-02,9.757495962448289178e-03,-9.772644766446973108e+00
-1.845086164109392343e-02,-1.285134240593581618e-02,-9.770079369901100819e+00
-2.897847512574603691e-03,-1.688631010080457462e-02,-9.778121323435808421e+00
1.013459890271100478e-02,-5.555208731434041654e-03,-9.787985896864913826e+00
2.403348524858670010e-02,-1.617711676515003541e-02,-9.784972507132044583e+00
2.592720052723430403e-03,-2.622584442656484757e-02,-9.775630929114921486e+00
-4.442215942486416394e-03,1.781308621448220858e-02,-9.768942879178716510e+00
-7.832213040037106638e-03,-1.134178399285852915e-02,-9.784631983192754845e+00
-5.801273934792675578e-04,9.812756902743680759e-03,-9.805743994104316741e+00
-1.334008774215494388e-02,8.817946985072259991e-03,-9.772272667975634874e+00
1.972536427933885804e-03,1.449919490379707361e-04,-9.755600319121636943e+00
-1.998591479657183326e-02,4.919761006015894306e-03,-9.766056809227501745e+00
8.410251628073166924e-03,-2.680785560197292486e-02,-9.786382624986769585e+00
4.385106861125778917e-03,-9.752642034484520876e-04,-9.815741040555458596e+00
9.605684123121025278e-03,-1.450258643049437066e-02,-9.772056888871890834e+00
-1.849547569186867123e-03,-1.447402071514249360e-03,-9.797904498449534927e+00
-4.205944084025107490e-05,-2.592571472909354496e-02,-9.784222190652718254e+00
-2.121492868416465991e-02,-1.859248172629982335e-02,-9.795488594514901948e+00
-1.059861646277823408e-02,2.881177623241745409e-02,-9.765629698790130320e+00
2.628761806864524098e-02,-1.022031075407180828e-02,-9.789964087483179256e+00
7.100333767465907137e-03,-1.096019614841351776e-02,-9.786759694944313637e+00
1.275543821782518239e-02,-1.169736165134873350e-02,-9.774281491207673866e+00
-8.681392058948595586e-03,2.247429834312821006e-02,-9.781333937110797905e+00
1.272404166436236911e-02,-2.121510814353710569e-02,-9.786297075650061572e+00
8.456576532588442469e-03,4.998274518538008138e-03,-9.791593241931145997e+00
-1.384218367500860032e-03,-4.853192590744963460e-03,-9.752717057962838609e+00
7.428051530093840969e-03,9.870339807510668251e-03,-9.794131402682994647e+00
-1.814577735180291848e-02,-2.407251114241214587e-04,-9.796215957544550434e+00
2.511752129672021293e-03,1.269739155645600685e-02,-9.783935344864495676e+00
-1.143120995486647182e-03,-2.699087948077179278e-02,-9.772099872738339243e+00
1.910743009017933439e-02,-1.141771207866713531e-02,-9.786473587210322123e+00
-8.004565246814848017e-03,8.771276512565281611e-03,-9.764019286660543528e+00
-1.515771623736803311e-02,5.903295623898137390e-03,-9.787617519451515591e+00
1.432961905292496653e-02,-4.198054189950341589e-03,-9.782848521064515523e+00
2.446994740406482557e-02,-3.464218761395154722e-02,-9.794505427841674106e+00
1.405045850013304440e-02,3.959682280800526886e-04,-9.786098162416307034e+00
-3.186798340677491660e-03,-2.219392627161136545e-03,-9.756513501943846478e+00
5.307863918200138656e-03,-9.581270035508217264e-03,-9.789334988531349424e+00
2.990374295427965581e-03,-5.423000580984990021e-03,-9.777141425072793268e+00
1.223834283906630183e-02,9.684827852322714162e-03,-9.767338012326835184e+00
3.803405938809565831e-03,-1.162575314246809370e-02,-9.793088518682518284e+00
1.758968149264473688e-02,-1.027601335995908562e-02,-9.790177589603469954e+00
2.245926760880703754e-02,-2.451958731412489517e-02,-9.794666684688817071e+00
-3.957953299165014108e-03,5.212513946444202739e-03,-9.782792196275471142e+00
9.393593198185742552e-03,3.526230263731229553e-03,-9.787617627935000897e+00
-2.161293906285934041e-02,2.514999638702820201e-02,-9.776757342819161423e+00
2.157881111705587523e-02,-3.037790546887417231e-02,-9.772617425402618352e+00
-1.481416296684561623e-02,9.615688865830234605e-03,-9.772408578031884119e+00
1.022113975850788559e-02,3.497240041688665525e-03,-9.772645701455358491e+00
8.127666134440558049e-03,1.229565604243499852e-02,-9.787730787743630145e+00
5.387476132347936847e-03,6.371964352871773395e-03,-9.794763623542385389e+00
1.733155128025134009e-04,2.133000153863518281e-02,-9.766748695180643480e+00
9.342803655747338593e-03,9.237052973088829069e-03,-9.777727454028397602e+00
6.645663464260358894e-03,-5.434573962131728289e-03,-9.800616151989276048e+00
-2.641351284328520913e-03,3.113162893960973177e-02,-9.792984566134878222e+00
-7.518915580005606190e-03,2.147546696976206787e-02,-9.779487458670869771e+00
1.245932064604669820e-02,3.089834251656905020e-03,-9.766149181690170877e+00
2.101336410254794548e-02,6.071599816005739114e-03,-9.793020291963159707e+00
1.582452950530788272e-02,1.415587766260496187e-05,-9.778106042147637567e+00
1.461527203490466803e-02,8.027356967012075697e-03,-9.770573840583166358e+00
4.076007011836229460e-02,7.085654683592837108e-03,-9.786596789484249825e+00
-1.384938359317502456e-02,-7.556974868386937168e-03,-9.786152180749693841e+00
4.718221767771507702e-03,-4.079167797964520495e-04,-9.788950758675373010e+00
2.277825498334584350e-04,1.013645427864789776e-02,-9.767423028609144353e+00
2.566279172892883126e-02,-1.638611827037528626e-02,-9.782956681362007245e+00
1.593075335958184235e-02,1.255497843191589850e-02,-9.770015529746295613e+00
3.645810261159428134e-02,3.249895517083568278e-03,-9.778741768263966350e+00
2.158520994671882243e-02,-8.143423442860210637e-03,-9.781408815909092169e+00
7.243118560314778728e-03,-8.751906825652976812e-03,-9.780140026940921771e+00
2.545800088951958792e-02,-2.271976482384202231e-03,-9.782059342967388105e+00
2.608255940954781055e-02,-1.075451168607761444e-02,-9.801384042179117628e+00
2.251098745860347777e-02,1.471866469484319970e-03,-9.786476627352952207e+00
2.126666208746820497e-02,-3.718393198027826734e-03,-9.777403901575667078e+00
1.616069124569198545e-02,-1.301889436752553218e-02,-9.761929276803307687e+00
-6.340376841370346656e-03,-5.635529542920575050e-03,-9.770797800160973878e+00
5.112144795939649322e-02,1.011312260558297482e-02,-9.773864750383300048e+00
4.916436030351731268e-02,-1.198805348664910148e-03,-9.767532046385294819e+00
1.170891939890911573e-02,6.887795305198799768e-03,-9.777223309781870597e+00
8.068304718666593350e-03,-1.433789527421369496e-02,-9.777761163714188797e+00
2.115770124876979047e-02,1.832794860613013582e-02,-9.778543344590191921e+00
2.822136610446980554e-02,6.572384993176201562e-03,-9.766164963656907005e+00
3.168916821606371226e-02,-2.577457378383907552e-02,-9.769134592126500038e+00
2.123514294844753431e-02,-5.486921797059171775e-03,-9.778261736619686673e+00
1.722015402643383222e-02,-5.199314360811825748e-03,-9.799348875750027332e+00
1.978932167667585632e-03,-7.345703889201585929e-04,-9.762198689702090704e+00
1.192296308308824111e-02,-1.380848200888755081e-02,-9.796129737125788495e+00
-7.669026794654068904e-03,-1.480209309956843043e-02,-9.793208596441298042e+00
8.213047643375484194e-03,1.008122425091595572e-03,-9.791232460197251797e+00
2.353325346697970888e-02,3.105341229421901793e-03,-9.789018045814584568e+00
2.935888117191349025e-02,1.958085464983234589e-02,-9.782528794417906681e+00
1.947413543448897610e-02,-2.791015197913256952e-03,-9.797006209783479136e+00
3.953509737384085232e-04,-4.033555092879535960e-03,-9.774251140628905432e+00
6.770731437237142644e-03,-1.198617673560729499e-02,-9.767500416977293654e+00
2.727126992981216552e-02,-1.814416381498108050e-02,-9.778872728146192017e+00
1.292292202920660923e-02,-5.875747043505815878e-03,-9.798745868529454839e+00
-9.050678440353893475e-03,1.281527827405793546e-02,-9.758890997359861430e+00
2.694417420005246894e-02,1.353451018723011729e-03,-9.797817170833202027e+00
3.631931035730730575e-03,5.556497305508369122e-03,-9.804207218394992651e+00
4.922454828009308406e-03,-1.066174571048238325e-02,-9.793375978162623952e+00
1.777328324019021924e-02,7.710814393795079741e-03,-9.763985169169627554e+00
1.905684009767368708e-02,9.352811319209357668e-03,-9.745064130941859304e+00
2.335789321191631199e-02,6.236703874977662931e-03,-9.776745457209649715e+00
4.965891174106317960e-03,4.806457025054174971e-03,-9.792777611475498745e+00
1.180904412662577355e-02,2.252934674191046927e-02,-9.790686590332946082e+00
3.752406504447970692e-02,-3.929298782473247993e-03,-9.783972451419362670e+00
3.248272070219502053e-03,-8.872504978995238850e-03,-9.786846687231236075e+00
1.605531854307072626e-02,1.703132715154229496e-02,-9.745603435869726994e+00
9.358080498078194531e-03,8.852288403065372568e-03,-9.772640312331725809e+00
-6.105287162881833929e-03,-3.423419702596168512e-02,-9.784628700863020612e+00
-4.070788871130576192e-03,-1.978547192554784562e-02,-9.777273353459053240e+00
3.858913427692094167e-02,7.376189319637040803e-03,-9.768384437986185276e+00
-9.749399000696414019e-05,1.181167989138027369e-02,-9.777419814739289450e+00
2.047387000053976433e-02,1.655787162914808264e-02,-9.788431182000977060e+00
3.160701381990176084e-02,-6.813144647027672904e-04,-9.778916938380374901e+00
1.884158036458941088e-02,-3.825622005254407897e-03,-9.768319797015086792e+00
1.712769767025715956e-02,6.374988178196402781e-03,-9.786935531689300305e+00
4.410467552316454237e-03,1.288631453906906484e-02,-9.785010636551819019e+00
1.149807158362826758e-02,1.576030148640963219e-02,-9.774073682615325609e+00
3.335527896113732460e-02,6.000611490248270244e-03,-9.762478222083521118e+00
-3.329842882706001567e-03,1.949432253471017687e-02,-9.791506180382416602e+00
2.187065244897684960e-02,3.074857203690745111e-03,-9.766785848050698604e+00
3.335212036655195444e-02,2.510521279828097432e-02,-9.744931828765647452e+00
1.766567387626976487e-02,1.143932503054258601e-02,-9.765458300829228833e+00
-7.629333530881868275e-03,-2.923404378514479849e-03,-9.782800363238489894e+00
1.889030983488860713e-02,7.727564173887870383e-03,-9.777005760883795915e+00
1.926649420297872617e-02,2.081151887604888728e-03,-9.780183207238900778e+00
4.568714471724390214e-03,1.028348405081005307e-02,-9.770829648337803874e+00
1.070540964093232017e-02,-1.704265821878096082e-02,-9.767928798891956532e+00
1.361300729014053822e-02,1.385069722680190400e-02,-9.776818397460612431e+00
1.990518293219615403e-02,5.105373947450618684e-03,-9.757520314351493695e+00
-1.058533560211728092e-03,-1.341730632018815761e-02,-9.786250744389786149e+00
1.013902655548649945e-02,1.140574264829419260e-02,-9.789793662956773446e+00
3.166872744457253225e-02,-2.393047434044216944e-03,-9.778608226167900597e+00
2.768620972356303570e-02,-8.688540939082351616e-03,-9.782853789713307435e+00
-5.434861452918727728e-03,4.307950730296094058e-03,-9.763095870757100059e+00
1.499447161637689624e-02,-1.076586954741106522e-04,-9.788868691719539328e+00
2.337636234288546777e-02,1.154637420799015449e-04,-9.788871243806779532e+00
8.117537462983080015e-03,1.932560700334251189e-02,-9.760507111357940246e+00
2.400897737177984728e-02,1.468813762853678206e-02,-9.767253768955955096e+00
1.704148387438398846e-02,1.025577841272741833e-02,-9.761744006820265440e+00
1.992832606824004177e-02,-8.604375999436598629e-03,-9.779717037058928142e+00
1.640112060766620722e-02,4.171400887964498393e-03,-9.753453412404207157e+00
3.704149460488116719e-03,-1.819229674796070916e-03,-9.774594412379714825e+00
2.204554153171621456e-02,4.453135403450902453e-03,-9.770164882105559556e+00
3.537403835816435582e-02,4.220964110968314364e-02,-9.757660818120807988e+00
2.398097553800810147e-02,5.713556515359432056e-05,-9.773123809309907983e+00
4.844812438913458780e-02,1.253937302299826424e-02,-9.778868114809462497e+00
2.029973186772292271e-02,8.569334104858159981e-03,-9.764090939727156027e+00
2.381430336095403250e-02,-7.162694362452785499e-03,-9.776922646770183079e+00
4.279864511661641419e-03,2.772219463869536604e-02,-9.733492132244968786e+00
1.595445117190668130e-02,-3.317439149371259003e-03,-9.764609107784551156e+00
1.784361145456764275e-02,3.676189917914613522e-04,-9.776303790563451557e+00
3.154010531854003346e-02,1.021487310406582819e-02,-9.764767807658300214e+00
2.778196682932919034e-02,3.894015727920823247e-03,-9.757164078036653976e+00
4.488616294764171538e-02,1.407535539792283651e-02,-9.781286560714516298e+00
1.519564888392377702e-02,2.413072353786031767e-04,-9.751987016271199238e+00
2.846429834992594138e-02,3.619307603427908762e-03,-9.792014837138394157e+00
1.188018412151764513e-02,1.670506843098394471e-03,-9.783191197450436860e+00
2.515402830698836717e-02,-2.824904028535691128e-02,-9.752735096821885108e+00
1.587830504539221310e-02,1.418808409927041492e-02,-9.758662454901550376e+00
2.947414347015233499e-02,-1.950404096987416389e-02,-9.756669104382014623e+00
1.759881542543096505e-02,-1.425223902785502372e-02,-9.769071261981817855e+00
2.137512749896086292e-02,6.022299642018369079e-03,-9.776877096611300999e+00
2.224163516448484507e-02,-2.266834759071420860e-02,-9.772561597239381115e+00
7.847369942358751668e-03,2.946989562056854736e-03,-9.761788515854036064e+00
-3.953022779971879230e-03,1.285118069209365693e-03,-9.774111048595225171e+00
2.019906969284052806e-02,-2.013813041741206039e-02,-9.766649224460397960e+00
9.990115974370760224e-03,1.767733345920088212e-03,-9.752824512117307165e+00
2.736123466077252514e-02,7.608621823074489948e-03,-9.765396567057679889e+00
2.859866623739948030e-02,-4.050532850693237125e-03,-9.746677546977647211e+00
1.807599568713114807e-02,5.494406809824667684e-03,-9.757288183946533522e+00
-1.623747262680887496e-02,2.035894388611498781e-02,-9.777671865431416975e+00
1.688041037742318146e-02,-4.703238109349623317e-03,-9.768557965686833100e+00
3.090082716852235803e-02,-8.715795631752077874e-03,-9.774525305695661359e+00
8.632953325376479733e-03,-8.323117209508949788e-03,-9.782864041926210064e+00
7.861150234350976901e-03,-9.711612075845536124e-03,-9.767878839569959837e+00
1.222989514244078070e-02,-7.911337019380362823e-03,-9.779443933349483586e+00
3.532694577863378094e-03,-6.648098719061145551e-03,-9.754850503823375263e+00
2.887716921709992945e-02,2.511032281432748134e-02,-9.742450885610574929e+00
2.627218304016047667e-02,-1.754251903181816563e-02,-9.782520225367928646e+00
-7.721179777760531215e-03,-1.566902397037395374e-03,-9.757295349454354394e+00
2.757742822771188165e-02,9.773675175389281988e-03,-9.752602260029439307e+00
3.325810482558528083e-03,-3.071017736868107695e-02,-9.774092005428768104e+00
2.113980598268153793e-02,1.265612739391029466e-03,-9.764293236556438771e+00
1.677502829042304064e-02,1.875435694267613487e-02,-9.771728464278968573e+00
3.811242897235682381e-02,-1.132600401775778198e-02,-9.778636688451324943e+00
2.078119109086730074e-02,9.068461778651594474e-03,-9.771789379206069270e+00
2.274419551592082173e-02,1.651886975524846993e-02,-9.779260276310576927e+00
2.549174341878471250e-02,-4.174397865161756649e-02,-9.761986870810298811e+00
7.515676557257962645e-03,6.668131899344084332e-03,-9.764290830703890478e+00
1.950801467477024376e-02,-2.723280416127229694e-02,-9.750519229675848720e+00
2.706732447163235494e-02,3.699367764036709180e-04,-9.793307961532759620e+00
1.535439718195284048e-02,-4.974725009271169923e-03,-9.748271256975503007e+00
3.754772134043459636e-02,-2.471468295200447696e-02,-9.789427225124178733e+00
3.864655253427821957e-02,-9.681330560019640180e-03,-9.773372958587343007e+00
1.090313370639394396e-02,7.032013772468096585e-03,-9.782960627983262825e+00
3.012132124243718095e-02,-2.503961606214932713e-03,-9.762382811835337293e+00
6.263753480372610122e-03,-2.495166984411657102e-02,-9.791821297932868262e+00
1.944474032390103302e-02,-2.068208115616876341e-02,-9.770719517224634387e+00
-3.802141368674624017e-03,-1.052457772902882366e-02,-9.741950814390470725e+00
1.299356590135087794e-02,-1.172957086137069692e-02,-9.778428389706048662e+00
9.174741997678077451e-03,7.891036885864801363e-05,-9.774598157947245625e+00
-1.100886082609258548e-03,-2.311353376246837177e-02,-9.754815816600931555e+00
1.030160733123590584e-02,-2.403476681706934182e-02,-9.770039906111067651e+00
2.221453624244051558e-02,4.795715676121898793e-03,-9.767081872100730422e+00
2.184531074990751429e-02,5.083653789914406931e-03,-9.782269606592404187e+00
1.055404056729288345e-02,2.988631088161260684e-03,-9.791943321067867245e+00
3.261803314226461442e-02,-1.867809747444688223e-02,-9.780518147671131146e+00
-2.553057433182780514e-03,-1.103135647138007991e-02,-9.770343787763518861e+00
1.583440469390012123e-02,-9.553476910975459979e-03,-9.754956900478402915e+00
9.733527358431283416e-03,-2.971535120327822160e-02,-9.769680172285291064e+00
3.348125471455661029e-02,1.305895014202191999e-03,-9.765228909020549963e+00
4.655063303296812227e-04,-3.989517794704111261e-03,-9.781596671432408741e+00
2.791238011708969957e-02,-1.987413285114849465e-02,-9.781138008170612963e+00
8.793584703342779973e-03,1.436094231596370986e-02,-9.767575794796066191e+00
3.318606322365148797e-02,-8.691563256219350664e-03,-9.771006993184181866e+00
1.580312615853000577e-02,-2.755641761286910761e-03,-9.781278354817294129e+00
-8.384817203069784217e-03,-1.001018442720714996e-02,-9.775078828666694974e+00
-1.122348569400548855e-02,1.803693747315523316e-02,-9.786758573945155248e+00
3.214355169860454164e-02,5.752250618800028997e-03,-9.783632306271735857e+00
-1.022764520237317079e-02,-1.523701158682695504e-02,-9.779145468644124151e+00
4.127760791510047891e-03,1.519836703684872281e-02,-9.768261535012733532e+00
2.617194345479939566e-03,-1.895037082048948822e-03,-9.768585966901813578e+00
3.890739598227935941e-02,3.307573533170046591e-03,-9.788407926506247136e+00
3.955615022839953365e-02,1.324749420316637810e-02,-9.769303060394776139e+00
1.681572041932920258e-02,-2.297864149559605135e-02,-9.790322759052589419e+00
6.345618611196725961e-03,1.841636221640126359e-02,-9.777265451509393301e+00
2.068257882895706279e-02,-1.075150413394151960e-02,-9.782421309931464748e+00
2.777982460386491798e-02,-1.518303817743099811e-02,-9.761664360606975066e+00
1.508225971418099276e-02,7.962915843962501544e-03,-9.773034818798652879e+00
2.499605980705298103e-02,-2.813386186580090972e-03,-9.797433259274292539e+00
2.122616976843300779e-02,3.256074529950239368e-03,-9.775316566668980300e+00
9.519416449157654808e-03,9.902770700271465790e-03,-9.815913969658843996e+00
1.100259944272266241e-02,2.111072647597899907e-02,-9.767866507878579796e+00
1.844325886814632276e-02,2.407357273914506254e-04,-9.766917950461763809e+00
1.422180377423113394e-02,-8.257368250376808869e-03,-9.755771071668290162e+00
3.231538837197096836e-02,-9.834578708282037257e-03,-9.806353855197700753e+00
2.700058921607377538e-02,1.310771336695423089e-02,-9.731167451389033829e+00
-1.231303972633180158e-02,-9.121191923950206989e-03,-9.770257151805452622e+00
2.210138041270244547e-02,-5.135164926725096189e-03,-9.751964266452457508e+00
8.123028939643233901e-03,-9.826494658980746560e-03,-9.769666780310529930e+00
-1.638619345486704362e-03,-1.123006395497934927e-02,-9.773278053602547644e+00
-6.892875612767475346e-03,-1.384226315807844145e-02,-9.772722788633760871e+00
-2.189881584412168083e-02,1.776101003779300205e-03,-9.775543879293699945e+00
2.306971741362284778e-02,7.830908675133982713e-03,-9.745326391522532106e+00
5.184197886267564309e-02,-2.025735209526967687e-02,-9.800407391406782409e+00
2.326484110037878306e-03,5.264471471930364313e-03,-9.785692457156569546e+00
-6.524904039802888189e-03,-1.193369838398962088e-02,-9.754061124369250990e+00
-4.977743138117659422e-03,8.553563042496232366e-03,-9.774790959097227727e+00
9.183178583257862321e-03,-1.340565680167645629e-02,-9.775448069201114976e+00
-2.243742405326737410e-03,-8.299913760334759472e-03,-9.762857898000214973e+00
2.002340641280091552e-03,2.879965835182440523e-03,-9.780497381988560335e+00
1.311166005624740671e-02,1.490655074867475952e-03,-9.760180385754077648e+00
5.501192661497045742e-03,-1.645594998936176709e-02,-9.776047367383974063e+00
4.987075350689559178e-02,-5.674085822512074662e-05,-9.782463120270167067e+00
-4.615141360351723843e-03,-1.156802244172530289e-02,-9.769593794368340411e+00
-4.867787907788218016e-03,2.319900604094356222e-02,-9.754728263306541081e+00
2.906408408936666382e-02,1.403863406236936784e-02,-9.762732564716072758e+00
2.599624099239371267e-02,-2.033333790877378533e-02,-9.777783660926008480e+00
1.897871112631416973e-02,-1.882628113725941937e-02,-9.779436479906497226e+00
2.332290142062750510e-02,-7.207565495301677038e-04,-9.786954850416135443e+00
2.389894933408472436e-02,1.317334651662508543e-02,-9.784296607633557130e+00
7.717097086294654601e-03,-2.924044688577205273e-02,-9.788450003342431316e+00
-6.513705890592497161e-03,2.113926828187306841e-03,-9.779759549766097848e+00
3.174804660293024938e-03,-1.537083479977364650e-02,-9.792581978717054270e+00
1.924313787749122595e-02,1.143664811979224274e-02,-9.771738849170123586e+00
-1.064058536286907955e-02,1.792848101606090219e-02,-9.780195552464983066e+00
2.466068550586433816e-02,-7.611769435949430201e-03,-9.786155673586479864e+00
4.173765917706897741e-03,-2.442499228070869541e-02,-9.769444703713967115e+00
-1.627362391083390231e-02,-5.947590230203306932e-03,-9.798569531121431808e+00
2.180885169603718338e-02,-1.187675436450969131e-02,-9.800470922615813762e+00
3.322533486905217270e-02,1.985216757900304385e-02,-9.803501975831725446e+00
2.611064700986194531e-02,-1.225039891135839415e-02,-9.777911837123154370e+00
1.941864045159334695e-02,6.914411889567316158e-03,-9.764959037949974885e+00
2.314197426903766286e-03,-1.782250823523181486e-03,-9.778648377083802856e+00
1.164300345584273581e-02,-2.196189000230458141e-02,-9.782231571500537015e+00
7.072437694838415966e-03,8.551060035284748298e-03,-9.763682866153379436e+00
-6.980319117751248442e-03,1.777119988587145920e-03,-9.783001363795788663e+00
2.208801644132685205e-02,4.547049679810294051e-03,-9.759346542359399024e+00
1.061827722599082910e-02,3.491794930694919457e-03,-9.773257699370136109e+00
-8.766836564462759593e-03,-5.571093686509110028e-03,-9.762660833063341315e+00
8.601767399447530354e-03,-8.325346541208254389e-03,-9.758914286574665198e+00
-3.275070771694506278e-02,1.454234541771152155e-02,-9.757838884020648251e+00
-3.019899884322335346e-03,-1.326841775719089789e-02,-9.741239961990904916e+00
1.387277592993007257e-02,-1.335421754133200509e-02,-9.774307158610239910e+00
2.810958627587774317e-02,1.973493880369957959e-02,-9.749896805259334442e+00
4.848959776885215789e-02,1.626988656425726321e-02,-9.766754387455540254e+00
-1.822197748485221078e-03,-1.695784161702821452e-02,-9.752444734193010945e+00
-8.121163864425601231e-03,-1.319470140177663418e-02,-9.771603109000150056e+00
1.745131685090312371e-02,1.569177595946099268e-03,-9.762931751783019863e+00
7.277156635628154180e-03,-2.435610103579363347e-03,-9.754375978572030093e+00
3.330375136948902220e-02,7.501937792302913570e-03,-9.768950028784484374e+00
8.965269870294549637e-03,-6.419223670178973024e-03,-9.756615969637421060e+00
4.337114259976291783e-03,2.593876091890483238e-02,-9.760910225386140837e+00
4.057731298149501800e-03,-1.492570107600617573e-03,-9.771271032702644632e+00
2.796283479142570166e-02,2.652913659789622042e-03,-9.764250607235068102e+00
1.923650184321269371e-02,-7.597892796726902521e-03,-9.768983085679938227e+00
1.186119267644980893e-02,1.027048882064570887e-02,-9.781976107347352567e+00
7.457641215201111368e-04,9.716599695002504575e-03,-9.769003189922537800e+00
-8.677988201887608388e-03,1.249498372137564442e-02,-9.769906230784116019e+00
2.177483028172684867e-02,7.459313014786409044e-04,-9.775272074721568671e+00
-5.614647333319877295e-03,-1.262723245787240357e-02,-9.804000701484302027e+00
2.667119629582657622e-03,5.390219408928518564e-03,-9.777345274421554322e+00
3.001549415502411527e-02,-7.296904704915898113e-03,-9.765985015589102147e+00
5.112184648976406121e-03,3.263483431506491311e-02,-9.787374392921728727e+00
2.468950011879419461e-03,-8.126786589009460122e-04,-9.768034414527432929e+00
2.006901537763707000e-02,-1.548989047074254615e-03,-9.807044627751917432e+00
1.583329007311504860e-02,1.201807968376975531e-02,-9.758066841936479108e+00
2.956953465939515455e-02,-8.413101999671429923e-03,-9.788697926790774773e+00
-5.134893148548104122e-03,3.011591119937155614e-02,-9.774453645137359814e+00
-4.952036266471849732e-03,2.440502508792942015e-03,-9.784996259946639796e+00
1.026519754731348467e-02,1.558770017626034607e-02,-9.769143065123396141e+00
-4.923768844018745761e-03,2.119377914542562580e-02,-9.770526623579529613e+00
-7.202147010740482178e-03,6.701484826833570968e-03,-9.772464415766418000e+00
-1.116280323905484602e-02,-6.935608457718494407e-03,-9.783712133519847143e+00
2.194732791163965177e-02,-4.761217730783351247e-03,-9.788176599117448973e+00
-6.400906849750222921e-04,-1.004473108812225027e-02,-9.768086058988064480e+00
-2.322176052282678635e-02,8.843533394996066013e-03,-9.766283345785158332e+00
1.457763007874077373e-02,5.820187570099511973e-03,-9.788792991226850759e+00
2.413834640388808767e-02,1.350437229684580201e-02,-9.768917943770409451e+00
1.652574659163350002e-02,-1.783659685864724675e-02,-9.803247516698871067e+00
1.945541453978530400e-02,-5.274814110620511080e-03,-9.762226970722668540e+00
3.444821197594015449e-02,-1.047040701852865532e-02,-9.765457275125513092e+00
2.056538769796476332e-02,-3.753904906554183466e-03,-9.779361977084148450e+00
1.818998189126151688e-02,-1.422033161755652080e-02,-9.788869562584913808e+00
9.734071828338162341e-03,-7.646175797850830388e-03,-9.766170515213962844e+00
1.196260998085147548e-02,3.041868703438680224e-03,-9.773680700687339851e+00
1.084817959702952250e-02,6.741543027938189971e-03,-9.768878545359644505e+00
-9.968527100453261625e-03,1.298756036277152852e-02,-9.768853096032023231e+00
2.896613936519587540e-02,-5.627081973460968875e-03,-9.774227938336970567e+00
6.661532023559927837e-03,-9.610993773656453104e-03,-9.781878425241956165e+00
-2.956507829572456447e-05,2.122982383182819496e-02,-9.781894807825493032e+00
1.426921275969740555e-02,6.403394695109034321e-03,-9.783238865283461649e+00
2.365713704186570010e-02,-5.317770131840020113e-03,-9.760450969796549359e+00
2.914699819740758369e-02,1.460511240789370488e-03,-9.790158350934545339e+00
1.002172298724131154e-02,3.692854550032129406e-03,-9.758416823228674986e+00
2.510170947048243062e-02,-2.899087615060759980e-03,-9.778593716709982786e+00
2.676407713365128171e-02,8.130188849240107922e-04,-9.777307601696376693e+00
-1.189755582679062271e-02,1.819303450053528018e-02,-9.777459423071913847e+00
2.652200061742642639e-02,-1.588854587426236130e-03,-9.774626468076617059e+00
1.331188939581251854e-04,1.879491182084544465e-02,-9.769766166186791168e+00
1.837592388357769252e-02,-1.511981918766901536e-02,-9.775595821871483793e+00
3.800061582111350852e-03,8.825791367606427434e-03,-9.770749746772763089e+00
8.047942939468283319e-03,2.299947010479795953e-03,-9.789959132143902565e+00
1.432667355912097679e-02,9.640792130978105556e-03,-9.778083508698241388e+00
-2.416535641935678262e-03,-7.437022517736435051e-03,-9.757976342155258109e+00
2.118576659323996234e-02,-9.778104491959878353e-03,-9.778965788581409413e+00
2.476303915717911232e-03,-2.214966082793290089e-02,-9.763848170674746640e+00
-1.648820731768367576e-02,-1.381508455317715864e-02,-9.776710182142508643e+00
4.957742568765194022e-03,-2.314185426914147983e-03,-9.792943774697821624e+00
1.013241628128556775e-03,-1.170218725264391291e-03,-9.789127877695504409e+00
1.635572404722892420e-02,-7.231556186125963695e-03,-9.764453451356306601e+00
6.284901770475644078e-03,-3.385749834104767597e-02,-9.793631693483671796e+00
2.526234341133463956e-02,-2.380765591841972270e-02,-9.760662539693413464e+00
1.421773022484110020e-02,-2.523216248910221601e-02,-9.767456694385163729e+00
2.329110055028563858e-02,2.391196425783469193e-02,-9.752645153395759436e+00
1.551213785982901924e-02,8.553565655216385441e-03,-9.772122766784519854e+00
-1.339200556624949717e-03,2.246581040588353784e-02,-9.786307566727371565e+00
6.150257935357466080e-04,-1.535092192037132430e-02,-9.778982771163617471e+00
4.559041377071366974e-03,4.036557749598648423e-03,-9.775528040493076887e+00
-7.374843844864080455e-03,-1.466563151285939746e-02,-9.784746454729685183e+00
-1.512650060604735572e-03,-1.361131840368983922e-02,-9.771298359954007751e+00
-2.310896393012415798e-02,-7.407898419782553770e-03,-9.778409328007240831e+00
3.300340468503268343e-02,-1.844338465732894144e-02,-9.759240431962410867e+00
-6.237981020620447271e-03,-1.090122167611094067e-03,-9.770624761294538274e+00
8.217245348063346999e-03,1.757446144737304095e-02,-9.780970581724124813e+00
2.204472991055996325e-02,-4.347250957959847284e-03,-9.776765014035625256e+00
2.170104218141919415e-03,-3.723001252376921099e-03,-9.772369639732430002e+00
1.562087371196489716e-02,1.180782368836582642e-02,-9.784993272691094646e+00
2.498061681681087998e-02,-4.598942424380383226e-03,-9.785781772622287988e+00
-1.975639727542725238e-04,2.820912793466166454e-02,-9.791239816762811188e+00
1.544995171329855907e-02,-1.421257460820222682e-03,-9.775641653373975615e+00
2.354279625681441820e-02,1.540490435265846891e-02,-9.765070617973872658e+00
9.411604395677307389e-03,-4.759021594162249347e-03,-9.762661256582502389e+00
1.522378411876569582e-02,-2.720721476954360285e-03,-9.777695022947463954e+00
2.305185955949968710e-02,1.417880207006508818e-02,-9.777748571549473411e+00
3.277974045197554805e-03,-8.495291706191211711e-03,-9.780468846211714862e+00
1.643029787525678367e-02,7.135910801607381684e-03,-9.771584867220116877e+00
5.368605188216852946e-03,-1.675224351007636309e-02,-9.760406109136543051e+00
-6.640435587666322810e-03,3.326344318381316278e-03,-9.786358899661109945e+00
1.638082784347918638e-02,-1.078908382115740736e-02,-9.762682208296286746e+00
-5.055686776541379150e-03,1.558959663105522787e-02,-9.776959998667168250e+00
-1.909815118499006911e-02,1.783669891819960121e-02,-9.781546752843601311e+00
2.787139596189791221e-03,-6.484681015839681515e-04,-9.789818799718737807e+00
1.845484777208418123e-02,6.593183810947310028e-03,-9.750513812137924674e+00
-1.145172599835318598e-02,-9.827050696721224485e-03,-9.759474481047638150e+00
-2.439267918943053767e-03,-1.320204975852665337e-02,-9.760383781766012845e+00
3.486643320979291097e-03,7.633746615167869183e-03,-9.774993291720377897e+00
2.839484100975554065e-02,1.812595225462440562e-02,-9.754310013023191672e+00
-3.134413310200317646e-03,4.779376722665411130e-03,-9.786491125316150175e+00
2.058892140115713143e-02,-3.833229725424703443e-03,-9.770468802760863269e+00
1.782761116454477032e-03,-3.919371045025928091e-02,-9.775182263784778058e+00
1.778531025487158426e-02,-1.955825627686283430e-02,-9.790447678442527391e+00
6.835782855832295973e-03,1.111824715811107235e-02,-9.759927215955954694e+00
-1.024968565539772190e-02,2.347021817516618987e-03,-9.772050680083921748e+00
1.988081408813202958e-02,1.027148796725235735e-02,-9.769275948805178800e+00
-2.308371989857335022e-04,-5.979062298987588425e-03,-9.765525149781355552e+00
1.792157882667248792e-02,-2.195378038077076821e-02,-9.774180130980976600e+00
-2.831744021298352593e-04,-9.119825932175806837e-03,-9.778327514384217878e+00
1.156378511680889246e-02,-9.114019458339854898e-03,-9.803998323150240779e+00
4.164197294252182380e-02,-5.738801458287823461e-04,-9.783114838280615899e+00
2.633939443011698578e-02,1.296353622193336871e-02,-9.774948977532236682e+00
3.743736916372512880e-02,-3.286519280584750211e-03,-9.789077189180302341e+00
-1.475388032865037127e-02,-1.486590303630919976e-03,-9.773092244145836105e+00
1.846419414301330233e-02,-6.571900259917231278e-03,-9.775915810853756938e+00
8.531282102881919405e-03,9.546442692206929398e-03,-9.786686773685692842e+00
2.825499966882039082e-02,1.186303404975724667e-02,-9.791722969429031309e+00
1.806741715649723065e-02,1.700203364145361565e-02,-9.767453781091083087e+00
-2.709158628461929771e-03,-6.063870106420175474e-03,-9.781888739569179592e+00
4.139083604944469863e-02,-1.012326188448342719e-02,-9.819153999403994248e+00
-2.599649698770212583e-03,3.654533994376466671e-02,-9.766011081545290295e+00
3.206310726018372914e-02,2.211836667127372799e-02,-9.790934598074604978e+00
1.834225322325980234e-03,-1.126730073592977811e-02,-9.786735270412995291e+00
1.431600716851910531e-02,6.711365472678140071e-03,-9.783254727672215267e+00
3.602734136454075614e-02,-2.571173740836123905e-02,-9.782875970832945356e+00
2.216546020120436361e-02,1.018092926475179169e-02,-9.762085262249083684e+00
1.128225241748893187e-02,-5.946046282836928328e-03,-9.777259393992936864e+00
2.054206265994493880e-02,-5.638250132791963222e-04,-9.771537338045840571e+00
2.501600894476678494e-02,4.421403116508944818e-04,-9.772038566939894366e+00
2.137422952677494117e-02,1.267927321892460372e-02,-9.779890790454111027e+00
1.018887436170938174e-02,-9.976334109361670657e-03,-9.782861675331933071e+00
1.338951459271298626e-02,9.286109579037880868e-03,-9.803482892367847867e+00
4.201108016832529740e-02,8.988445734096725537e-03,-9.794264404330386142e+00
1.776110271111373817e-04,1.402582475979372544e-03,-9.770584967617374161e+00
1.735249120850702181e-02,-3.380328110771255862e-02,-9.785170630312689966e+00
4.726869309497588878e-03,4.049951354112643273e-03,-9.773708973957015544e+00
-6.904130974436269164e-03,-2.898494930738185552e-02,-9.793472386703944821e+00
1.327612862900835917e-02,-1.033957759857157335e-02,-9.761990415660287468e+00
3.305978062482930503e-03,-5.393285521040657934e-03,-9.767764111809041694e+00
2.470119607989435320e-02,-3.494074061991292099e-03,-9.767789045273987725e+00
3.438253578370478736e-03,8.080466338726624564e-03,-9.780533718506525531e+00
1.714111987868652265e-04,3.559009922767312779e-03,-9.773720025343045847e+00
3.703514370422221480e-02,1.178642538001418993e-02,-9.781108537023341043e+00
1.269689990493817755e-02,-5.122277155243272831e-03,-9.787710115818322620e+00
3.027088589080788317e-02,2.005218832512532454e-02,-9.770550238694704959e+00
6.754042882701689551e-03,4.366923568436272864e-03,-9.770239349101565551e+00
5.283328050541137577e-03,-4.663056453664498821e-03,-9.763091778240642782e+00
1.566424743639616840e-02,-1.523402672944830158e-02,-9.775375017109986686e+00
1.749373574561172845e-02,3.201694678463531951e-02,-9.778436836658906728e+00
2.111339384208005959e-02,-1.034605042887238625e-02,-9.778182211578897665e+00
2.088148500138430064e-02,-1.739874975192940917e-02,-9.766227020250434876e+00
2.062402209333361047e-02,1.433321152473593200e-04,-9.771675238054282175e+00
1.643340706840507211e-03,-5.327890805506695256e-03,-9.803854676206594121e+00
3.817143595066555678e-02,-1.005025322320858908e-02,-9.778177379898643551e+00
2.950932601840036001e-03,-9.527951649730050793e-04,-9.784180101623242365e+00
1.035500867996571803e-02,-2.509168350341721334e-03,-9.782157180378646899e+00
-6.009674163305868400e-03,3.498024385234061590e-02,-9.793929981777045768e+00
1.920182700867279456e-03,-1.637749053063920421e-02,-9.781211203314349234e+00
2.705549786960264116e-03,-7.549743338161548495e-03,-9.804700372471996772e+00
-3.239154109121977244e-03,-1.581037480121610592e-02,-9.798250649352734598e+00
1.754240585986902717e-02,9.423274771511194053e-03,-9.802814355960116188e+00
8.358677500957525583e-03,5.504653805867206276e-03,-9.780778612534493988e+00
9.367758889660066438e-04,-1.716899384956045022e-02,-9.779359393858802818e+00
1.542529083714293779e-02,-4.167001158225697166e-02,-9.778086817249411311e+00
8.587942059383631144e-03,6.484486940214085650e-03,-9.782973112001956295e+00
-1.580925783901822312e-03,5.816901541509118118e-03,-9.762354334379214293e+00
9.890333033698026424e-04,-2.853381037860450511e-02,-9.782517472852344298e+00
2.734460127745734492e-02,-2.256275360349181344e-02,-9.778127790407292963e+00
1.411156431542320844e-02,-6.508707986885528887e-03,-9.779926897994396739e+00
-1.181214739971980787e-02,-3.485621196142224803e-03,-9.792177881875266721e+00
1.541089345642396476e-02,-1.799303480429670712e-02,-9.780284408220605741e+00
-9.861779455300426905e-03,7.114120189349775261e-04,-9.786984904502805449e+00
1.545294031465493587e-02,-4.975531252207273346e-03,-9.790408253603658295e+00
-2.780055652078248195e-03,-2.911193915664131784e-02,-9.755225965164527224e+00
1.239530097065770498e-02,-1.184176658698336826e-02,-9.770461225942083772e+00
2.088982765286355459e-02,1.893602948674551201e-02,-9.767727007571348707e+00
1.200253457356777187e-02,-6.562651929473265790e-03,-9.776115976750480385e+00
7.678116782038522069e-03,-2.183191688185915844e-02,-9.785306645883055765e+00
-1.122487332021292195e-02,-5.511121164452912127e-03,-9.784699514660220032e+00
-3.818465071121206200e-03,1.138973606855542796e-02,-9.777936247551826554e+00
-8.936110699104462401e-03,-9.520030495894775402e-03,-9.784237972887121160e+00
7.416492482647781340e-04,-1.226948362087958849e-02,-9.799537025814057500e+00
1.967508052218880886e-03,-5.488403483765722998e-03,-9.800700368144973140e+00
2.602124505972371743e-02,3.022319195125592467e-02,-9.772829445578514296e+00
6.886802186457492703e-03,-1.178004491767896400e-02,-9.808328182369338677e+00
-3.995238846341710170e-03,5.071059679162864126e-03,-9.787051131417394245e+00
9.696713333150284303e-03,-1.513306442938439078e-02,-9.798546444004520239e+00
-9.718421977554531771e-03,-2.926726360161841477e-03,-9.794361609617068254e+00
1.464367098223959274e-02,-3.641714635657625817e-03,-9.813383606231633749e+00
2.713687699607415793e-02,-1.446427924760732182e-02,-9.777337008826252784e+00
-6.607928778219642266e-03,1.734169122028260401e-02,-9.762789548980119747e+00
2.158193973705183413e-02,1.457459218510934532e-03,-9.787738700589104113e+00
8.970067388422868493e-03,-1.146814284851242240e-02,-9.787013895355007875e+00
-1.443089602637435964e-02,-2.160638528357219403e-03,-9.784553216498272477e+00
-3.970247023112096971e-03,1.568176248513551002e-02,-9.792920586689934481e+00
-9.848113209762582657e-03,2.293017149425575704e-03,-9.786523291858694407e+00
-1.857782936911195858e-03,-1.609710647804260195e-02,-9.794918524194429210e+00
4.351636672301178316e-02,-2.255364854893116694e-02,-9.770738269362693629e+00
2.686058679311222747e-02,-3.534867565282420049e-02,-9.781858295058800223e+00
1.989068212295172153e-02,-2.511596807380377105e-02,-9.774535634895965330e+00
-1.325493388280087753e-02,1.687962205933395479e-02,-9.790361781035581856e+00
-1.200347364855965104e-02,-1.903779979357720850e-02,-9.792483006313712934e+00
9.625462767371218212e-03,-2.197274718699364013e-02,-9.798103155033267342e+00
5.628385969704222808e-04,7.302536221384353220e-04,-9.793257706242751937e+00
-7.165496172648931975e-04,1.502474118689684987e-02,-9.795308491446453658e+00
-1.769846678985569424e-02,-5.572815075203918674e-03,-9.788408416760203679e+00
2.350923376458840391e-02,4.438020982445597083e-03,-9.793010629227135055e+00
-2.869698901630198841e-03,1.117052492173663258e-02,-9.766620395541011135e+00
1.491075339442455953e-02,-6.898139797894728767e-03,-9.804380170983904463e+00
1.169385483604554882e-02,-5.758978375048583870e-03,-9.791788413686436598e+00
1.632191578321388198e-02,-7.193504499272404540e-03,-9.796462597821550489e+00
1.579443465801140881e-02,-1.121383810035064300e-03,-9.788499236242918400e+00
8.169625497223304000e-03,-6.705303682287456699e-03,-9.786207893403641833e+00
4.433337822561302793e-02,-1.357682545056987725e-02,-9.753317579577110763e+00
6.331402967358941945e-03,1.171743671511545071e-02,-9.789890371700064264e+00
-5.379731162516443455e-05,-9.906069403181142971e-03,-9.820751178840849249e+00
3.028670598463572769e-02,1.001883544515475531e-02,-9.777371880049040342e+00
-2.276204829384067055e-04,-5.480332230588311551e-03,-9.775295984158677953e+00
2.383837496853800919e-03,-9.209382128466416656e-03,-9.786945156797900225e+00
8.752294949595632034e-03,1.646028798529178966e-02,-9.806853668848324546e+00
7.330541257006221306e-03,1.303872757565599505e-02,-9.786047823262101986e+00
1.112962557107960264e-02,1.411717326867615273e-03,-9.769937869417399057e+00
9.962219860673863364e-03,4.297038315882718840e-03,-9.772401914400351330e+00
-9.863355682811450476e-03,-3.038676632739710157e-03,-9.776171385218464849e+00
2.149200919397121351e-02,-1.724562344976597952e-02,-9.793246124747179593e+00
5.045074692246101673e-03,1.638502175095620655e-02,-9.809025111426713295e+00
1.136515386263832125e-02,7.943592869014866331e-03,-9.789047800738282845e+00
-1.058779978490374807e-02,-9.639834008680915264e-03,-9.777669190482715322e+00
1.768580401047548795e-02,-4.477387596051265843e-03,-9.759197397115425332e+00
8.660458819455905261e-03,5.056141813431194038e-03,-9.776727349051784088e+00
1.165376264201544929e-02,1.169391083189066233e-02,-9.781828449982308271e+00
3.658986419927889866e-02,3.420955702291193778e-03,-9.777439096109683092e+00
5.147414598208312209e-03,3.040909764739119312e-03,-9.803550756741877592e+00
2.362701673752325496e-02,1.242650929299019685e-02,-9.784364410079419372e+00
-1.740221079735054105e-02,4.596024798658813332e-04,-9.800204099375216416e+00
2.251829376691726059e-02,-1.355314894351658181e-02,-9.765637999703150385e+00
1.905594347643281561e-02,1.249700235664449356e-02,-9.795265549941097660e+00
-4.398247296388524061e-03,-7.976486247317305170e-03,-9.794241528271626862e+00
1.805253198468408440e-02,8.326526031657054475e-03,-9.762751853957844617e+00
-5.203198520145879517e-03,2.075943755889027298e-02,-9.791052777496503268e+00
-1.473118000830496432e-02,-9.937753689066906523e-03,-9.781830934419526002e+00
2.527354969631602152e-02,-1.970170644290197403e-03,-9.778074483914860338e+00
2.601822131545034056e-02,7.107562609697140425e-03,-9.797737841421687577e+00
-6.529854534753614520e-04,1.168797495850910396e-02,-9.816217916093926021e+00
2.117294434215936244e-02,1.252986494437436510e-03,-9.801033664513472132e+00
-1.720558565293553444e-02,4.538355940406372559e-03,-9.800013172481772727e+00
-4.809062824291561455e-03,-8.578018578929131818e-03,-9.769525529444846867e+00
1.645717792084252021e-02,1.524099589739278185e-02,-9.808732132795208614e+00
-1.410496247303463097e-03,1.639954710051493361e-02,-9.799718584614183214e+00
1.958356985488121996e-02,5.506700510924476127e-03,-9.794837352545037845e+00
1.242689284173492496e-02,-1.416080329088594339e-02,-9.790903971850630327e+00
8.375692958479088318e-03,1.881715104547994691e-02,-9.779301410496827884e+00
2.645357019278829144e-02,2.763616209003968288e-02,-9.768693824664065772e+00
8.658711013231311371e-03,-2.654550088441134936e-02,-9.784644288519945832e+00
-7.715682181583385230e-03,1.011890840028822382e-02,-9.790386968342456697e+00
-1.124259251557147704e-02,-1.359078581174963298e-03,-9.792118721565351791e+00
2.132925392074245044e-02,-9.794742059790631592e-04,-9.765100123330157089e+00
5.398189804391725390e-03,1.744687076599080785e-03,-9.820281842371212377e+00
-2.194134036009775385e-02,-1.941202077876971396e-02,-9.797009991520280181e+00
1.952583355180098623e-02,-6.133041641481923670e-03,-9.793158621052969082e+00
2.822254464187176279e-04,-7.125971440375212032e-03,-9.803727962133025997e+00
2.447416841001711849e-03,5.811212945972233333e-03,-9.767213176351519976e+00
-1.317161008868555742e-02,-2.103367845977404966e-03,-9.776782596560725125e+00
1.733728802051571691e-02,3.677844725904961566e-04,-9.784747251698227899e+00
-8.398596130394599124e-03,-1.213566947479958764e-03,-9.772021911651712855e+00
1.586816802741349008e-02,-7.188269680987165698e-03,-9.803319011220287038e+00
2.625168097100859244e-03,-1.611300304238228549e-03,-9.776135793601330448e+00
3.681478020558534570e-02,1.375310904306195278e-03,-9.799957226165062707e+00
-1.417771953298306055e-02,-2.782087819581076024e-02,-9.776933616251426429e+00
2.929129604593549204e-03,7.778588519688936324e-03,-9.802649106133044299e+00
6.000178585878765750e-03,-7.837592868210516497e-03,-9.789089086833506315e+00
-1.085594715771087682e-02,5.830832624800399988e-03,-9.781337499943274949e+00
-3.796168950431691187e-03,4.741065050605492055e-03,-9.766120668940141414e+00
2.531474247143963418e-03,-1.484970925845441152e-02,-9.769420149766963490e+00
-1.271209384919351655e-02,7.253585325672708313e-03,-9.791089857960226794e+00
3.062999957728562966e-03,-8.730515530744251823e-03,-9.795366567849139727e+00
-1.093740030185515189e-02,-1.945635166508476177e-02,-9.775504169633228102e+00
2.639815372021905252e-03,8.304982920190162599e-03,-9.767664629243856922e+00
-4.759010063368747032e-03,1.828714290558396821e-02,-9.770567592994632733e+00
1.837341025472801620e-02,-2.900060813501596085e-02,-9.772667920128151664e+00
1.608761773084219472e-03,1.824579636163181813e-03,-9.778877411569379063e+00
1.994075508148827371e-03,-1.330577321497355622e-02,-9.793771877707298401e+00
1.939734387565843210e-02,-1.683886063363485355e-02,-9.772746079773895644e+00
1.509288532830413594e-02,1.082656374804392974e-02,-9.785426299126816829e+00
-1.045667363205938366e-02,-1.867064684025756399e-02,-9.769241002091165527e+00
-1.053909903218169797e-02,1.611283148646995567e-02,-9.785225416226127848e+00
2.211596655139192596e-02,-1.997478303008616562e-02,-9.784189925611480376e+00
1.451362821446144057e-03,1.009089983598088387e-02,-9.799218271408715708e+00
-1.564824171056583904e-02,-5.474035030743504456e-03,-9.786713198936265456e+00
1.608176396883272997e-03,-3.228600706295054606e-02,-9.770581777477566732e+00
-5.672184672877695656e-03,-1.891802189381722871e-02,-9.773884730210378180e+00
-4.017730690264670682e-05,-1.473254867104629301e-02,-9.818215683434697638e+00
1.966149366659113162e-02,3.966297282736488440e-03,-9.807363715265768889e+00
1.016344072944841068e-02,-1.350531268426523671e-02,-9.788934600704081390e+00
6.311169068710952013e-03,1.582649335444428346e-02,-9.806181486764126376e+00
1.295642285149193988e-02,-2.822833535799981058e-02,-9.789497203887297161e+00
3.017715663360635500e-02,-6.021109261673913624e-04,-9.788294370976911907e+00
-8.070858125220632673e-03,-2.064403304480790652e-02,-9.808493708545173106e+00
1.493026102088803458e-02,-2.530318808587964097e-02,-9.786046167128926498e+00
1.124340637411388316e-02,1.422645441982038801e-03,-9.788937207684840658e+00
-8.653711288843918964e-03,-2.122340077702088851e-02,-9.765678857896414655e+00
7.047502263121875610e-03,-6.379199759722774601e-03,-9.803283931488664393e+00
3.884744168181358120e-02,-8.770714186772015156e-03,-9.807584428857952119e+00
1.012436103111388416e-02,2.479129726190629386e-03,-9.813800584619054135e+00
1.759244287682634397e-02,1.564161226456553706e-03,-9.765084276419063514e+00
7.420807954453882867e-03,2.159922378509100682e-03,-9.792928019712984877e+00
1.571819879430922523e-03,4.577055115419425765e-03,-9.793336519504366677e+00
-1.842209197246589755e-02,-6.940455685042844387e-03,-9.795398516570809733e+00
8.976040994896782380e-03,7.203920067370014023e-03,-9.767334560313869929e+00
-1.590817253541902329e-02,-1.403831474297922641e-02,-9.781239712631569105e+00
-3.092401898691387631e-03,-1.060234683715456996e-02,-9.794393517625268331e+00
1.172963704214017092e-02,-1.452012217572981601e-02,-9.790822985514244792e+00
1.357946113580253689e-02,-1.628420345254698656e-02,-9.785368685701101299e+00
3.031134315675086330e-03,-1.119090915085257931e-02,-9.802019906339545230e+00
1.776228462781354045e-02,-3.029903540213083751e-02,-9.786112952087572481e+00
-1.231237196789468011e-03,1.347728666575534126e-02,-9.800688170387498843e+00
1.972161650012331860e-02,-9.950267933018218727e-03,-9.799280239074478871e+00
2.193475116646271400e-02,-1.415670407572272409e-02,-9.783845824145039671e+00
2.817627312087494021e-02,2.008272067774340142e-02,-9.753546554519486378e+00
7.666603374860300919e-03,-1.978151746466649819e-02,-9.775885260647910968e+00
1.922831191793479208e-02,-6.606594797298231264e-03,-9.785752824696348995e+00
4.175070236314312733e-02,3.117802135032215691e-03,-9.791583393594354590e+00
-6.603473010573799110e-04,-1.561218557239623349e-02,-9.783822236819871065e+00
1.141571039468134569e-02,-1.534607631297732477e-02,-9.780578952713945284e+00
2.806988821388350583e-02,-8.078190679201751115e-03,-9.794878276543521167e+00
-1.526668946118392781e-02,8.333453346030977524e-03,-9.789080235341323544e+00
2.599191380531522266e-02,-4.035728011872681369e-03,-9.779510353306875459e+00
8.192950418547225583e-03,-3.803397122452666090e-02,-9.785818958428972536e+00
9.289537358852691107e-03,-1.526883775038334959e-02,-9.809745254729538289e+00
1.577146870702470643e-02,-9.310918343711595269e-03,-9.806042196082342954e+00
7.780979891119336675e-03,-7.576914431718794959e-03,-9.790342960479957668e+00
1.195407468348119902e-02,-2.384126406987055469e-02,-9.804787559706790390e+00
-1.027415147785187485e-02,1.438969601623254352e-02,-9.802245429884589356e+00
2.172942243185809613e-02,1.489455249071700536e-02,-9.797086680718313900e+00
2.209620615594663773e-02,-3.843199040980026931e-02,-9.786387112641303787e+00
5.529214006566980644e-03,9.168646392612098128e-04,-9.779999223532710673e+00
1.932059256895533178e-02,-1.958764713144962519e-02,-9.805294354490687425e+00
2.203500979658761828e-03,-9.295753026363236596e-03,-9.755794910006741816e+00
2.852828657301459403e-02,-7.518220645753219064e-03,-9.770512337250563561e+00
4.138687421157465074e-02,-8.376034457192127122e-03,-9.779426792161586945e+00
1.451448710403344285e-02,-2.460024266652658873e-02,-9.783710022670998541e+00
-2.248246059150994791e-02,1.660411024752367348e-03,-9.810205162630348141e+00
1.922331869308435692e-02,-6.839611909805907476e-03,-9.763765529813170474e+00
3.937731517490877103e-02,1.209933837747877855e-04,-9.777437824758910878e+00
1.147432583616422169e-02,3.050179652035026751e-03,-9.773621033098219613e+00
2.118042492785068495e-02,1.646479750690079541e-02,-9.763321993402328758e+00
-3.187930254528755641e-02,-4.405829596584458913e-03,-9.783443076377793091e+00
-2.175217997190816155e-03,-1.218677854101820474e-02,-9.789863292639420678e+00
-5.708815459967165815e-03,-2.723993679317238473e-02,-9.795296698332977670e+00
1.077247894986177457e-02,-2.722112712937867218e-02,-9.772002892743721247e+00
1.622693772821729927e-02,9.231530602734974722e-03,-9.788783727665817835e+00
1.063182239311903643e-02,-9.020804205374370610e-03,-9.771655686664310281e+00
1.484126116100083388e-02,-7.364255771473387016e-03,-9.742270401580146455e+00
-9.709337494329419588e-03,-7.206354598255556090e-03,-9.776876577648094369e+00
1.198496405712249843e-02,1.244767466946680029e-03,-9.776783580704879739e+00
1.475343757291386771e-03,2.064122684955313827e-02,-9.790855675819509329e+00
-9.771858007177976549e-03,-2.105652315297354416e-02,-9.785648459066468519e+00
4.339579503115201069e-03,-1.175561987298553643e-02,-9.789979295773239443e+00
5.516203373407229521e-03,4.907457369930725427e-03,-9.802663091553235120e+00
2.674909671499497987e-03,-2.440026143208144649e-02,-9.805914174979013964e+00
-1.105453195648090775e-03,-2.016557997049289036e-02,-9.816849558451117730e+00
-1.376884645225587116e-02,4.469791071609620012e-03,-9.782354812613386130e+00
2.451947424466097147e-02,-3.366520963592459226e-02,-9.784226814737715827e+00
9.012429592987475716e-03,-2.337860587188077266e-02,-9.778382510432001240e+00
2.693891450315672245e-02,-3.250864511372247162e-02,-9.811987689137916746e+00
1.284657648018957404e-02,3.902418667053726004e-03,-9.807039965861758191e+00
1.304156453428866221e-02,1.732326930622772598e-03,-9.771159989902866272e+00
3.703497129306131813e-02,-2.613970062740872402e-02,-9.793011175748519648e+00
3.281295959856908584e-02,-2.348421827895302849e-02,-9.812213549429040782e+00
3.421510765040897822e-02,-3.084013953315526552e-02,-9.790767735280777373e+00
6.305180878159125785e-03,-3.063296906744004955e-02,-9.798711263824513296e+00
-3.111354465761198909e-03,4.207705999450191831e-03,-9.799625246790883537e+00
2.097249472580070551e-02,-8.092510549586621679e-03,-9.760818391998348886e+00
-5.691812735815622928e-03,-5.301914491681269936e-03,-9.787504418796356020e+00
2.497028790406012437e-03,-2.904849057468755075e-02,-9.774822631244866500e+00
1.529250455275184967e-03,-1.155255098827415346e-02,-9.787442732757575925e+00
2.061551955103848102e-02,-2.495515818527055396e-04,-9.808980899773397155e+00
1.807242046706985031e-02,-2.084504664640141058e-02,-9.783526953819286831e+00
6.071299244913166623e-03,-4.835083742576381030e-03,-9.797253685712270510e+00
1.255498601223397660e-02,9.823650115583839118e-03,-9.769752847210334323e+00
1.346679862004134150e-02,-2.660307739716157027e-03,-9.794600962527733046e+00
2.477637194824272235e-02,-2.576125108206976308e-02,-9.795575235149950544e+00
-6.371273984276358548e-03,-4.625479728704856922e-03,-9.800109270973187847e+00
1.993181645415129793e-02,-3.965255276883027785e-04,-9.786808874992589224e+00
2.467927204096151406e-02,-7.772699785817713952e-03,-9.790063386912185805e+00
1.732890753462544217e-02,-9.007285947099206644e-03,-9.789069963833513910e+00
1.783099598089956522e-02,-1.577130847813238909e-02,-9.790550471314443115e+00
4.789719309744299228e-03,-1.385915511605009115e-02,-9.785216445597395563e+00
6.684771145803203654e-03,-9.915842243007256043e-03,-9.797614402794307509e+00
1.579864143116197980e-02,-2.344170526499192095e-02,-9.801592351660822544e+00
2.584814618858932017e-02,-2.040934658471442800e-02,-9.796962783588107015e+00
1.366416044110192740e-02,2.371808922243904411e-02,-9.782487088541802933e+00
1.017260103707963957e-02,-1.147746905267169742e-02,-9.785058757206567037e+00
-7.414453160127122168e-03,-1.436523376445852582e-02,-9.766416123637862157e+00
1.794333548097385572e-02,-1.575916514982072386e-02,-9.791725452446707223e+00
-4.217649381011365217e-04,8.400633197588307927e-04,-9.777551712655506932e+00
6.346930351360321673e-03,-7.874883937371216294e-03,-9.799339700418174814e+00
1.217827744445890321e-02,-5.343875101492832902e-03,-9.792364327243387123e+00
1.113732623816022192e-02,-1.567927797739946533e-02,-9.785955885112089803e+00
2.258464340045865729e-02,-1.987230564387033882e-02,-9.780618660077767146e+00
2.059450916811668419e-02,1.049485306249312543e-02,-9.805897213545444302e+00
-8.060596270197057170e-04,-3.839540209399824183e-02,-9.800492579065199550e+00
1.851682050578731115e-02,-2.073629025787444846e-02,-9.761530457974407327e+00
6.382427203667351626e-03,-2.922122001924675957e-02,-9.796140561954576498e+00
-1.725664939393773724e-03,7.522606428944887680e-03,-9.776411172456411336e+00
-1.068916279791274487e-02,-3.691248194093812995e-02,-9.788659368984832909e+00
-4.952758512407949218e-03,-1.187548114532067239e-02,-9.813204397977406401e+00
-2.702238200084273838e-03,-8.798670405024050511e-03,-9.811507675131524664e+00
6.005859977539399798e-03,1.189685610228937394e-02,-9.796568969155700302e+00
1.415445423159844909e-02,-3.300034884656532358e-03,-9.781965822021104984e+00
9.988407610303819129e-03,1.049475252236342290e-02,-9.794064187840305635e+00
3.522593309335662892e-02,-2.371458341248419699e-02,-9.778408138514606662e+00
-2.295408435261626218e-02,7.694130872308233005e-04,-9.769925273487928052e+00
4.152295792710425371e-03,-2.677884503110813941e-02,-9.796962554952543201e+00
-1.693723560551271129e-02,-1.558482628896429474e-02,-9.781250547339309875e+00
4.381823321734182666e-03,-5.945899798122435478e-03,-9.793176661198712551e+00
6.688292859086297087e-03,-1.768658942495521594e-02,-9.790522898880135827e+00
5.457563926729851189e-03,-9.826317266801590580e-03,-9.799780448834367164e+00
-3.328809574480336847e-03,-3.137235509975453557e-02,-9.764558531260819407e+00
-1.787809677692554083e-02,-2.043362968097705429e-02,-9.778671604862607225e+00
-1.131793368263035206e-02,-4.842339608951627163e-03,-9.774966798811925983e+00
4.126571792512502557e-02,-7.192692342285199845e-03,-9.793251287883165901e+00
5.990890611748908925e-03,1.345479169821026111e-02,-9.766466632649647650e+00
4.649579793610995535e-03,-1.107319762438735075e-02,-9.803296322055546241e+00
-3.875975414797420623e-03,-1.345106530749313849e-02,-9.788589498842425130e+00
9.747343545013971780e-03,-1.469519994054623198e-02,-9.792853672929185294e+00
3.675564251187071751e-02,-1.273637238437923778e-02,-9.791784852941580297e+00
-4.930041327951863173e-04,-2.232603772779923404e-02,-9.808045560087984782e+00
-1.211989981624975871e-02,-2.139235270485729049e-03,-9.769385508083756164e+00
-2.077094920354016772e-03,-6.259280921668180023e-03,-9.791714629783758284e+00
4.156620008030157895e-03,-2.349445532326899233e-02,-9.794212543860869147e+00
1.025476930604015888e-02,1.342676379436181372e-03,-9.791660896054748875e+00
2.055700998471897759e-03,-8.901823638103125574e-03,-9.785404149645779981e+00
1.218408194863372304e-02,-5.407326406221024326e-03,-9.786344549345880495e+00
6.751461764371823049e-03,-1.084213785570650908e-02,-9.787699013522480840e+00
-2.209150533276883072e-02,4.537168920845199849e-03,-9.794587989301998476e+00
3.720985498125881780e-02,-8.869454719113741351e-03,-9.766863428033268235e+00
2.208696429136158476e-02,-5.990785186325439660e-03,-9.769524581583283407e+00
7.907041882680248407e-03,-6.787942815766482077e-03,-9.782791784234683874e+00
-1.968769128791748521e-02,-4.385378197060356420e-03,-9.774671770367646673e+00
3.663471815613252719e-02,-5.345562876722513915e-03,-9.785231459818367838e+00
1.756341925977932331e-02,2.149468069943773207e-02,-9.790099686609387675e+00
1.943583852471916090e-02,-1.185873922384932631e-02,-9.784028253635844052e+00
1.444412736605813277e-02,-2.972487683262355768e-02,-9.775614026813842727e+00
2.186785230242463060e-02,1.080427303123375656e-02,-9.783196116453652280e+00
1.734118584940334828e-02,5.407229361824427566e-03,-9.762840527753782638e+00
8.869163658799458783e-03,-2.259306894104288685e-02,-9.775280364845984948e+00
1.561158461145304224e-02,-6.257636969640588756e-03,-9.791613118561867779e+00
2.115099096017214811e-02,-2.563154418172682719e-02,-9.771972154010887479e+00
-1.269648540746379922e-02,-8.503718873186053365e-03,-9.777903339917617842e+00
6.922197738198061431e-03,-1.537741009356202032e-02,-9.803380882013300379e+00
-2.070827916583209416e-02,2.095537429046417932e-04,-9.787891055267577300e+00
9.789084914001936616e-03,-9.001908287953542392e-03,-9.814041607511652998e+00
2.100361501060693178e-03,-1.907378190980771326e-02,-9.788227135655997557e+00
-7.440662752161374648e-03,-2.295331199656528223e-02,-9.778258615237168883e+00
3.495706565065377636e-02,-2.047786561132006189e-02,-9.768134365516106143e+00
2.424861524444309885e-02,-9.734706862789346132e-03,-9.798827103758396717e+00
3.955847492930106638e-03,-2.890275854384543458e-02,-9.817837060338325372e+00
-5.123286229719364523e-04,-8.733293519571295321e-03,-9.785847521895478351e+00
1.735813548868083908e-03,-3.617030107886026746e-03,-9.787526485360050543e+00
2.028425674309898910e-02,-4.655846941460159427e-02,-9.790183617016484874e+00
-1.078036858909634660e-02,-1.425288575148071085e-02,-9.788716827935949993e+00
-1.879867256080598042e-03,-3.290776805676998151e-02,-9.776224814288791976e+00
-9.577160863854364270e-03,-2.345167665739168739e-02,-9.785755334017778750e+00
2.134930617551255433e-02,-3.924277139659086699e-03,-9.779636241777060590e+00
-2.391022385776068668e-03,-2.715893804557129726e-02,-9.779445929780786528e+00
2.064481056198187985e-03,7.113734475297485427e-03,-9.778001100106797239e+00
6.086219224121049327e-03,-1.455155313450270070e-02,-9.820909398797679657e+00
-5.188488551148101764e-03,1.430044286827807272e-02,-9.791301222990432152e+00
-4.340179011557863606e-04,-1.969300781413999002e-02,-9.776186228890063390e+00
-4.911555532543480408e-03,-1.357314250703136986e-02,-9.793294007913113219e+00
-1.355485756763493213e-02,-1.541703524934429428e-03,-9.772928151832177335e+00
6.595048839214507838e-04,-4.855728304091349451e-02,-9.802113937839997959e+00
3.989766866514339941e-03,4.834682794360046360e-04,-9.754876328248862194e+00
-1.708483732739789901e-02,-3.489992873988292249e-03,-9.805915064008683402e+00
-1.118933418820577605e-02,-1.204697550293686026e-02,-9.792951268269304066e+00
2.216291198770630952e-02,-2.288448268634505484e-02,-9.781499355066738843e+00
-1.272401497086692035e-02,-3.406159517773708900e-02,-9.805096905795540607e+00
1.747438057454232113e-02,-1.586240021726684907e-02,-9.792418235012883443e+00
-2.787666091438525257e-02,3.359192418582297723e-03,-9.782499274689374857e+00
3.487473820701011279e-02,-6.114786478043243712e-02,-9.768277432489909984e+00
-7.624263022319259335e-03,1.543057683119108958e-02,-9.778716629230290280e+00
-5.259852143540377258e-03,-1.010289937408249093e-02,-9.786711290319260570e+00
8.007516014126227211e-03,-4.127798849752487009e-02,-9.779865569276871895e+00
8.603190786726324854e-03,-9.087298831553347611e-03,-9.773238774401933782e+00
1.070464647079842103e-02,-1.187338218063636354e-02,-9.797492383656610571e+00
2.034008559660376372e-02,-1.642725595900760421e-02,-9.785717713630642578e+00
-2.484949878102606438e-03,-1.041722684232415652e-03,-9.777793226319641207e+00
-4.052481903296242631e-03,-5.056069582943415602e-03,-9.768455278855691759e+00
1.317950898468325631e-02,-2.107589324540855291e-02,-9.784956788497908065e+00
1.192518561259673683e-02,-2.833863378798840219e-03,-9.808807133264366485e+00
-7.235371648353432564e-03,-1.345670319330989628e-02,-9.800241076738478441e+00
5.940116611868365495e-03,6.656607790916087980e-03,-9.769728745092407962e+00
-7.782927919572321315e-03,-4.744160113138329304e-02,-9.769179635611354939e+00
1.210923091963584698e-02,3.289327818559003441e-03,-9.798975156211334081e+00
1.777114856489862491e-02,-1.074773850831099373e-03,-9.777479894325249887e+00
1.271989701369857437e-02,4.608348161251099237e-03,-9.787125113330070292e+00
5.527011778663167875e-04,3.006130880584710272e-03,-9.770970061745572366e+00
-1.684563937663607208e-02,-2.245537089342374351e-03,-9.793929425316738602e+00
-4.641970440726294472e-03,-1.018476142239718024e-02,-9.797913870926326041e+00
-5.276987764244819683e-03,-2.423388308422538828e-02,-9.768903788314865722e+00
6.252056826036240904e-03,-4.562815720130315722e-02,-9.770510572767257429e+00
2.150120291952954590e-03,-2.670396145608174010e-02,-9.783004034243361957e+00
5.926137023635836068e-03,-5.960478699077648157e-03,-9.775295389515484601e+00
-1.009784309644604951e-02,-2.636263387514187206e-05,-9.795713341601803847e+00
-2.237848394269675162e-02,-2.329052587063920599e-02,-9.780264158360047588e+00
1.045917051332642331e-02,-1.305219662089590615e-02,-9.768415362329852414e+00
-3.050255757944149784e-02,-5.971881581448845733e-03,-9.789791331815584030e+00
4.247404308065143470e-03,-1.666328322063555245e-02,-9.816193130694212954e+00
-1.396011876428258046e-02,-1.836729152172404331e-02,-9.785635512169610806e+00
6.412127583076091420e-04,3.573137198631032296e-03,-9.766081611684688468e+00
-9.593665979882589484e-03,-2.705845222546657269e-02,-9.787380747140542070e+00
8.047971568244100329e-03,-1.445429257330926170e-02,-9.796781340015751738e+00
4.166457096241724806e-03,-1.091362369009936037e-02,-9.786084408150690805e+00
3.572514298490231388e-03,-1.982287138839252533e-02,-9.800912143106694785e+00
-5.891732145602161623e-03,-1.495798989811389368e-02,-9.767496838593686448e+00
-5.620459758380475131e-03,-4.446250526312502810e-03,-9.764064493538244349e+00
3.724300400589717914e-03,9.474986870626912056e-04,-9.783253693784313754e+00
-3.609104404129745425e-03,-4.695171261125468190e-03,-9.786891192247868076e+00
-2.264620680697761526e-02,-5.380413865468940127e-03,-9.757626786026911248e+00
-9.394665514672752293e-03,-3.099939474036696868e-02,-9.777987796096606843e+00
3.608276923705113631e-02,-2.251302192801430194e-02,-9.780789117428826174e+00
6.089999335995049078e-03,-1.797714257206125404e-02,-9.788935234818998410e+00
-7.502658300848836018e-03,-2.352273000343468867e-02,-9.810525377516110979e+00
3.555026418844623240e-03,-5.698043734492850079e-03,-9.780107804484797995e+00
-7.462041670862130591e-03,-3.410768198276384680e-03,-9.793094593016080651e+00
-7.184096182613452196e-03,-3.073479035707234186e-02,-9.803202916660037403e+00
1.574162006025755373e-02,-1.698870873775462295e-02,-9.791918416496510957e+00
-1.144965834469023136e-03,3.232935819036726610e-03,-9.758454632080255209e+00
1.868908425782947816e-03,-9.351938753169492663e-03,-9.819513236372575449e+00
1.489583274700250620e-02,-3.727568704969629748e-02,-9.794451408220703925e+00
-9.630955774934274807e-03,-1.148244931017739293e-02,-9.764221730689076395e+00
-1.115183418758905476e-02,-1.030457330228756740e-02,-9.768863033135380292e+00
-2.601710092365245447e-02,-1.486161674615925875e-02,-9.755294996462430035e+00
2.351734959936292203e-03,-3.007182191955620754e-02,-9.783207434369790789e+00
-4.915589519460047616e-03,-8.748653176539784859e-03,-9.784352597221094072e+00
-1.860393671278146727e-02,-1.017513317643203852e-02,-9.775617692656812352e+00
2.326420779792361462e-02,-2.610197164376048401e-02,-9.778178204200603574e+00
1.771443307621062627e-02,-7.981108603896096970e-04,-9.814645817280455375e+00
1.111011383326497223e-02,-2.248302613926552590e-02,-9.786900172608746118e+00
-8.376895735213120073e-03,-8.250094461534440357e-03,-9.765679335247961390e+00
5.820461645799676620e-03,-8.042253150591937433e-03,-9.790568438801500406e+00
-2.383411157142798116e-03,-2.145297886518207631e-02,-9.776935711430494891e+00
2.158590295715581350e-02,-8.435763431087570791e-03,-9.783914408496041659e+00
-3.027839474271096926e-02,1.460927954137472909e-03,-9.764670335053413197e+00
-7.734257731725483614e-03,2.435205364390084781e-02,-9.795584403857553468e+00
1.016958669872976805e-02,3.633172047318083964e-03,-9.791145044818470922e+00
-1.781289399533242390e-02,2.034520808796690811e-03,-9.752823809763304652e+00
-3.056863664787994039e-02,-1.456131593461061635e-02,-9.765064404958422983e+00
1.091827623947611015e-02,-7.984790512319997480e-03,-9.777734222344708570e+00
2.766916124285159068e-02,-2.918846315870154279e-02,-9.768741285826363807e+00
-1.848022496952188287e-02,-2.798730709408289372e-02,-9.804775391917415206e+00
-1.279382925092518129e-02,1.427511248925975203e-02,-9.779429916715660198e+00
-8.160626774181707274e-03,-1.429785688698147032e-02,-9.787902920917877836e+00
-2.719430186168320801e-02,-7.141327839397484077e-03,-9.770425209424981716e+00
1.919306140564056712e-02,-1.669777980614987195e-02,-9.779827372782028405e+00
-1.543371905068723592e-02,-4.669898845695815565e-02,-9.759955223945002700e+00
-1.763377411482187906e-02,-3.058384881844612366e-02,-9.773173611895400015e+00
-3.396244384639176932e-04,-7.717460088252255102e-04,-9.805846019016032145e+00
-9.049333526354137042e-03,-2.373469026988906522e-02,-9.762854821769359148e+00
4.904986805460034675e-03,-1.659316640616949334e-02,-9.782997130236816830e+00
-1.497013562139457195e-02,3.201100018151830859e-03,-9.782439833856013678e+00
-1.109667997907138118e-02,-1.951133594714708069e-02,-9.797904310925778404e+00
5.290786326765503991e-03,-4.345165717369834334e-03,-9.778323686073033372e+00
5.684965457839543128e-04,-3.180528459263311583e-03,-9.780794932796982977e+00
2.174526630726136660e-03,-1.640747188019901076e-02,-9.801996014835125948e+00
1.281246677759003555e-02,-1.185639409894646661e-02,-9.776060982315906145e+00
-2.024399619707082862e-02,-6.139460156496977933e-03,-9.794935427607432743e+00
-2.496987545800129563e-02,1.135408340306819606e-02,-9.780864157411528481e+00
-7.574142416267204587e-04,-2.408497361300964909e-02,-9.778457863579827603e+00
-2.957330254100758865e-03,-1.922311254586655388e-02,-9.819160325156541802e+00
-7.552290540840319276e-03,1.844031226590850392e-02,-9.758222770914725785e+00
-1.797815522861623966e-02,-2.550206953234586404e-02,-9.777629906666810200e+00
-2.480460644449809359e-03,-1.164258199544196230e-02,-9.781551556363188737e+00
-5.013471220035006955e-03,-1.811767888824552045e-02,-9.779372951759366828e+00
9.110079114985653037e-03,-1.366661031173917358e-02,-9.772948335581872925e+00
4.885161233845649285e-03,1.429276817706381410e-02,-9.788936240528837374e+00
3.947859515283938525e-03,-2.904831705127127600e-02,-9.798711023762807670e+00
-4.512702405243978511e-03,-1.737205474891560797e-02,-9.792934397488087583e+00
-7.528496896849450580e-03,1.943468147399263213e-03,-9.777404874036117022e+00
-2.335448501933050022e-02,-1.124479022766108720e-03,-9.777914646674334520e+00
-1.816812340603207385e-02,-2.883858724121492884e-02,-9.798879338222054258e+00
-7.410666687197683955e-03,-3.566279565305718879e-02,-9.785163229784712868e+00
2.557586476715354232e-02,-1.848664197952761337e-02,-9.769646117115575734e+00
-1.998520359658350135e-02,1.433473169269232003e-02,-9.789901445122499268e+00
2.055439673339665759e-03,-1.487967170850661158e-02,-9.791065542519250542e+00
-3.217228274453267332e-03,-1.659098194020747902e-02,-9.777450922495289021e+00
-2.807009790841182538e-03,-9.209842364054603506e-03,-9.786515357209356836e+00
-8.240160596951609517e-03,-4.040905634498979937e-02,-9.802268889677261399e+00
-1.358765478254902147e-02,-2.115180659342336816e-02,-9.770219728122311764e+00
-3.251466407060495285e-03,-1.408428315061283249e-03,-9.789570617753565074e+00
-2.327258868429759459e-02,-2.124051265407752263e-03,-9.791700064195703490e+00
-1.904890678742222204e-02,2.038107575743734745e-03,-9.792833702022051057e+00
-1.180752256467869528e-02,-1.181480747439001694e-02,-9.782363747116599839e+00
2.300566155088962922e-03,2.131747986357150279e-02,-9.794515124777726456e+00
6.322200913447951869e-03,-4.518770074027894136e-03,-9.773401975142554932e+00
8.167610105582908363e-04,-8.034238960121346113e-03,-9.778198937401718638e+00
5.919024884152830970e-03,-2.525821865977306065e-03,-9.758825783136124699e+00
2.363355953294794375e-03,1.242056257924652185e-04,-9.794421741170497242e+00
2.825241734479361916e-03,-2.133564057462568331e-02,-9.769846025754379326e+00
-1.364618935320841518e-02,4.587799143739024199e-05,-9.789303247110193951e+00
4.986291126322458904e-03,-2.401420487279905258e-02,-9.777941381826432021e+00
1.039604953973652726e-02,-2.324849468398975522e-02,-9.785359047728801940e+00
-1.043201336537349314e-03,4.131218251869148671e-03,-9.772312674570505564e+00
3.942967150146283774e-03,-4.216005210768624875e-04,-9.778845995234934918e+00
-2.683571958567297286e-02,-4.773674438600898975e-03,-9.826692933641529848e+00
-4.214151042581756011e-03,-1.560271226235732632e-03,-9.784178992777482264e+00
-1.954110499794476860e-03,1.477261122208047874e-02,-9.795506095415079884e+00
3.321027075949231633e-02,-3.562314920982340323e-03,-9.791544078577846477e+00
-2.266468462152022162e-02,-2.658696852083877737e-03,-9.774365562065092661e+00
-2.213299254310874958e-02,-1.723664833300401350e-02,-9.784905377920056324e+00
-1.984104291761488309e-02,-6.341806320586115993e-03,-9.767585017440891804e+00
-9.299830054562446824e-03,-1.774769061031606504e-02,-9.769650658883543670e+00
-1.715636970937054698e-03,-1.509953401568348182e-02,-9.795630343000510720e+00
-1.501555022459353378e-02,5.862475129143928862e-03,-9.788553641417513163e+00
3.210862550896821307e-03,-3.144583926373706317e-02,-9.795000335439443262e+00
-1.402050630746949633e-02,5.211402183687858722e-03,-9.785009803883783164e+00
-1.282525765901830657e-02,-3.238716792800692273e-02,-9.771183501502415325e+00
-5.214347727994146989e-03,-1.499361939558085770e-02,-9.781338134431235787e+00
1.922922472489954800e-03,-1.342037075734322724e-02,-9.780660210716456859e+00
-8.124010348299435386e-03,-3.650448267888348197e-02,-9.799151784588801206e+00
-1.288584983990339813e-02,-1.099277431483336627e-02,-9.761167909986586011e+00
-4.676186190762860947e-03,-1.744686187897059523e-03,-9.786345922616847659e+00
-1.894093566638579626e-02,-1.394809717220788642e-02,-9.766348869375264030e+00
-2.677531167941921836e-02,-7.363996501077801904e-03,-9.752923998015136320e+00
-1.460746008166311297e-02,-2.014681130064091899e-02,-9.795729694418033873e+00
4.314504159727632418e-03,-5.455027467489354832e-03,-9.775246895806766645e+00
-2.516344714663457105e-02,-7.962418867962714475e-03,-9.760778747743064088e+00
-4.130203398956239398e-03,-1.407461101974522358e-02,-9.778346361134936160e+00
-6.615941325347959694e-03,-1.688210295755180126e-02,-9.757928085567522558e+00
5.529813489352044739e-03,1.560912768661041478e-02,-9.785522042875673066e+00
3.946716977620734652e-03,-2.283774437983430300e-02,-9.781044533307770905e+00
-1.399757817359909007e-02,-8.378867411142312815e-03,-9.790400547028536238e+00
5.856921338339336758e-03,8.858713026412964528e-03,-9.777166770178954636e+00
1.414483198199904812e-02,-1.565499434558553088e-02,-9.777475634901495738e+00
1.138130410944675902e-02,1.308943158493046724e-02,-9.750089818800402597e+00
-1.812047064888273884e-02,-2.129713786580009205e-02,-9.780420744007319200e+00
-3.037396653779098066e-02,-6.697463205907845316e-03,-9.787616655710964508e+00
-4.096852791262320381e-02,-1.753372043656051954e-02,-9.754349502575239583e+00
-7.295627118320165139e-04,-2.983995352525665307e-02,-9.787484397778079881e+00
-7.793424154720757224e-06,-2.179922161930474694e-02,-9.757884041362423488e+00
-2.292579139978068864e-02,-3.326198699705772838e-02,-9.797089915321386400e+00
-1.869153063535728548e-02,-2.562075142490816484e-03,-9.778032290115879377e+00
-2.397457908976875079e-02,-7.643430538435538879e-03,-9.781326746381209247e+00
-3.707157302173627600e-02,-1.134981884181885878e-02,-9.776490553661059124e+00
-2.395867333142828390e-02,-3.518525362597126060e-02,-9.774232715695637452e+00
6.710310755257607035e-03,-1.308587055130877932e-02,-9.792662471456925033e+00
2.153029239116487775e-02,-7.527627872174506504e-03,-9.763453003806002783e+00
-4.437867986727867670e-03,-2.644057158785104861e-02,-9.758544673537903336e+00
-2.254132368904373379e-02,-2.285763309415501585e-03,-9.777948216210885946e+00
-4.161926929797341371e-03,-9.787812959250359601e-03,-9.760285435322641590e+00
-2.385099217392341875e-02,-1.960864522073050425e-02,-9.804737082658522951e+00
-3.207870182958286187e-02,-1.677130162573391842e-02,-9.779435094254719019e+00
-2.532679493513375485e-03,-2.896102650270752921e-02,-9.749041778808873460e+00
-2.465907918603611401e-02,-2.979231814472640960e-02,-9.782382679217441535e+00
-5.277352527521065803e-03,-1.275302569711902340e-02,-9.785674877697344343e+00
-2.472057445888595911e-02,-1.903514068806963153e-02,-9.777413770435243734e+00
-3.059013777918449459e-03,-3.308707646165381239e-02,-9.777925994767967310e+00
1.539479304587940134e-02,-1.808304894443176630e-02,-9.789840636690074760e+00
-2.781672560890347673e-02,-3.009713596842676642e-03,-9.769770423946079418e+00
-1.981295720514957004e-02,-2.923451271948990238e-02,-9.782482101831973864e+00
3.391230297047584732e-03,-2.612527486311223834e-02,-9.758950694839665374e+00
-8.639393565737438219e-04,-9.867318111882508389e-03,-9.796017660209036748e+00
-1.741111117284867976e-02,-2.208274122490797020e-02,-9.784288203233520775e+00
7.819738557224117231e-03,-2.547307066098640146e-02,-9.806997195082447050e+00
-2.210628169242014746e-02,-1.529479883963990802e-02,-9.805403377202759785e+00
-1.790311763575664836e-02,-2.072315831676896022e-02,-9.787774039191155850e+00
-3.230736074668793395e-03,-1.413100988200586758e-02,-9.770778586374804675e+00
-3.577981546757799669e-02,-1.540161645380754875e-02,-9.780027407512157822e+00
-1.526236786569932710e-02,-5.853844490666918962e-03,-9.786522241320099624e+00
-2.161426686456821220e-03,-1.847437540679255571e-02,-9.772331726447930578e+00
-1.292366581206332021e-02,-1.495717338791690935e-02,-9.771271000472083301e+00
-7.525495741965045060e-04,-1.487452620373325672e-02,-9.781785861269771232e+00
-7.384874396896282805e-03,-7.964152539071903819e-04,-9.771024693096634905e+00
-1.551828015719205860e-02,1.324865133902538780e-02,-9.789051584209483181e+00
-1.706444219465275483e-02,-1.520135317474153973e-02,-9.761307925925816420e+00
-4.421617009451598440e-03,-1.427481439170231493e-02,-9.788940804138430707e+00
-4.782937232875547617e-02,-5.838352912625500990e-03,-9.787183949934661342e+00
-6.507483591905403701e-03,-5.003811476270662167e-03,-9.785971599088970407e+00
-1.149608656584068592e-02,-8.771971331324601370e-03,-9.754694246834770155e+00
1.391081332505176432e-02,-1.127025219647999690e-02,-9.769515247598974383e+00
-3.156416828289684146e-02,-2.236883356923839022e-02,-9.781905518260558097e+00
-5.059878235287890158e-03,-7.709432806561174190e-03,-9.779104072594154928e+00
3.830637763736592649e-03,-1.597544992141697318e-02,-9.768368948691145803e+00
-2.228387119715981302e-02,-8.200776104546593503e-03,-9.770822827902190255e+00
-1.171040347310520549e-02,-4.527773803311348558e-03,-9.757494030308070165e+00
-8.641921682604799398e-03,-8.748693977914712844e-03,-9.759876754219106942e+00
-3.909504121719757641e-02,-1.047158679909248116e-03,-9.783803143147032699e+00
-3.085166290040224774e-02,-5.298323576323550263e-03,-9.779340808656524331e+00
-4.258229448291156460e-02,-2.444915539644446772e-02,-9.789292623448403674e+00
-3.137987003646681983e-02,-1.063275128331411107e-02,-9.767287749651735851e+00
-6.146707758423389581e-03,-9.647776751376877652e-03,-9.796373639447036652e+00
-2.706487445230070649e-02,-1.784804672794222322e-03,-9.781180398542174359e+00
-1.588097203137918065e-02,-7.705741260907874625e-03,-9.769283269494374977e+00
-9.842905012660987593e-03,-1.127603026512640633e-02,-9.788046907628274340e+00
-9.146959512033665113e-03,-1.520683996508454504e-02,-9.783234117577954692e+00
-4.320391022589026297e-02,-1.907925625660217978e-02,-9.789767481685506922e+00
-2.875268986934304688e-02,-3.475654594096989902e-02,-9.766228225150008768e+00
-1.257318973457243437e-02,-1.863454031196615929e-02,-9.771419969553225116e+00
-1.137911570635007953e-02,-1.787950381112957121e-02,-9.772334836251136636e+00
-2.178624049466802021e-02,2.998740929605961392e-03,-9.787775035189319794e+00
-2.646765621047200007e-02,-5.726723866619292357e-03,-9.782867063085554094e+00
-2.996515193996746734e-02,-9.400653124658535364e-03,-9.766071319993759658e+00
-2.098172576643839160e-02,-1.932067202872646619e-02,-9.757117054082369734e+00
-1.721277922846905367e-02,-4.876705597283757104e-02,-9.773313808231726796e+00
-3.255978931631463985e-02,-2.229222748726872316e-02,-9.782965646118315206e+00
2.567276256561681902e-03,-2.949134466131079352e-02,-9.785729559423751667e+00
-7.869693363916130391e-03,-1.726272202366381514e-02,-9.777203901685167509e+00
-3.083759164077316470e-02,4.178782160844184135e-03,-9.752094445069579010e+00
-1.550445548371755244e-02,-1.190888373293956699e-02,-9.772031863198405333e+00
-2.633169716178011127e-02,-1.150089788485328217e-02,-9.765572643603116276e+00
-2.876419588472192007e-02,-9.299524169148448705e-03,-9.757199730172738228e+00
-3.304484529838697116e-02,6.160976430487540012e-03,-9.787300435206532256e+00
-1.543387847025926365e-02,1.337588773587637322e-02,-9.790317808851330739e+00
8.106511418109616646e-03,-5.650345563030968396e-03,-9.773106542174705424e+00
-3.285054496235153415e-02,-1.552171323717449133e-02,-9.797243479505086228e+00
-2.743573645959205415e-02,-4.157474481024983626e-02,-9.791143247409724637e+00
-1.293858350729041456e-02,-1.473525555433354353e-02,-9.766866450627778917e+00
-2.899385346883109893e-02,-1.140384139366346951e-02,-9.761710901059974077e+00
-1.474499635863547355e-02,-1.419620521412307684e-02,-9.790114614302177998e+00
-1.839586563709630015e-02,-1.944663204167298293e-02,-9.777089552797511018e+00
-1.255857866794916726e-02,-1.861876565838465475e-02,-9.782876377637625964e+00
-2.884085946882059687e-02,-1.920138091765771077e-02,-9.784265461701767919e+00
-8.163373948212721692e-03,-6.368812613080734354e-03,-9.754583149948562237e+00
-2.339125922190501625e-02,2.088743016583173573e-02,-9.765199583997446808e+00
-1.969490778048224935e-02,-1.613322779468271545e-04,-9.765859813384336618e+00
-3.104799680253272909e-02,-1.894556984393963583e-02,-9.764882746586534878e+00
-2.551600959717801112e-02,-1.319616405490360057e-02,-9.783926404734698323e+00
-2.379796180168038816e-02,4.844153359781161808e-03,-9.799636068939443945e+00
-1.351744626371622314e-02,-4.001129329141469258e-03,-9.771907492528148609e+00
-4.310819181872048433e-02,-1.652000467566945574e-02,-9.766156247080736819e+00
-1.016810391979172841e-02,-4.350958985056493228e-03,-9.768498062393637937e+00
-2.309177093873598929e-02,7.841468918793746690e-03,-9.772662163837781080e+00
4.660888337839265427e-03,-3.993922951805176785e-02,-9.749355609582135429e+00
2.914237263206772427e-03,-4.163515997158440118e-02,-9.795213284790040831e+00
-8.953321777009975654e-03,-2.234087671716173881e-02,-9.811122255200331210e+00
-5.295902184524217682e-02,1.148289556030296713e-03,-9.780492142964044788e+00
-4.353077677538385107e-03,-2.133027077928120047e-02,-9.762338908726967190e+00
1.798658972289996633e-03,-1.077050789209927674e-02,-9.779473535918091542e+00
-4.470225113177016263e-02,-8.519626521182387807e-03,-9.781970280086605740e+00
7.448250881167864379e-03,-2.254344727993342484e-02,-9.790860820333138648e+00
-2.970368916948034829e-02,-5.294254461542988698e-03,-9.780581149438447142e+00
-9.270875161001555440e-03,-1.580778973920109187e-02,-9.774579186642441186e+00
-3.523516314654365905e-02,1.363110493867924697e-03,-9.773977149521789087e+00
6.751918175178627662e-03,-1.729099225771596818e-02,-9.770754139339688393e+00
-1.430573060711018765e-02,-4.097785497169169344e-02,-9.770580139372126993e+00
-4.943144146725581348e-03,-3.586075681937479082e-02,-9.759886506982013543e+00
-1.415495766554095494e-02,-2.504898036056771304e-02,-9.777374543504386395e+00
1.713194465135278732e-03,-1.512276224815871199e-02,-9.786933569256445864e+00
-1.360101433819749586e-02,-3.184515479612426772e-03,-9.764115607140301023e+00
-4.098769016471404472e-03,-1.033014182636630626e-02,-9.767433635121895108e+00
1.040264240467983839e-02,-1.246410528192913245e-02,-9.785587934385366893e+00
-3.777871398652845464e-03,-3.544789096177600185e-02,-9.793661911534407238e+00
3.523198894891180211e-04,-4.630257302069243353e-03,-9.762715929792250336e+00
-9.445430498021385735e-03,2.093302379579185801e-03,-9.762563951045539312e+00
-1.217419437826928325e-02,-3.714330944482731670e-03,-9.784774708105867802e+00
-1.439831054925051236e-02,-2.725381285190242586e-02,-9.795002852293730911e+00
-1.566153724370418499e-03,-1.140656872237219566e-02,-9.776757656491554371e+00
-2.821854400706460403e-02,-3.120225592071411425e-02,-9.782027984951888300e+00
-1.303917337339094602e-02,-2.784999319156881287e-02,-9.785687191670552565e+00
-2.122780774367980655e-02,3.686469695056641960e-03,-9.777768635222768623e+00
-6.521793719250925866e-03,-1.488818057017629592e-03,-9.788770233263287324e+00
-2.121236627581845127e-02,-2.437256698568052160e-02,-9.761993766171242370e+00
-1.053432588709607778e-02,-3.395875344602310164e-02,-9.780818771573470016e+00
-3.313278775806375101e-03,-3.666383099557132819e-02,-9.794778227315154240e+00
-2.836693061853184927e-02,-1.107153946788710583e-02,-9.762255353643475075e+00
-1.775934263724897669e-02,-2.371842157128341982e-02,-9.769525231334549531e+00
-1.350491044839275193e-02,-3.891076241229664973e-03,-9.758275484856181237e+00
2.699737344354199639e-02,-3.567660888887219661e-02,-9.763975432342954619e+00
-3.177086953176926076e-02,-9.819891055156355908e-03,-9.770586189187305592e+00
-1.687427046088624261e-02,-2.450830819411069575e-02,-9.758223658685263757e+00
2.701542984330743136e-03,-1.761782634638413628e-02,-9.781904421510509096e+00
-3.177177031640013305e-02,-3.355615111018268176e-02,-9.754030329776934849e+00
1.015077309546058570e-02,-1.435445453232172229e-02,-9.796660944077029143e+00
-1.216534186652609879e-02,-1.418419971102359220e-02,-9.771865803537398421e+00
-3.844464307387050056e-02,-2.471771476571303292e-02,-9.775172095671853967e+00
-3.514276015273012227e-02,-5.027845108121070661e-04,-9.775325274903929440e+00
-2.644310583492501254e-03,-1.856195883137569391e-02,-9.795805036670698129e+00
-1.368232195496493601e-02,-4.946520622621339291e-02,-9.783055247620936257e+00
-3.595360703521228302e-02,-1.203468059466002507e-02,-9.771554891955432254e+00
-1.267961952184724038e-02,-3.441414810787795514e-02,-9.784383276025099718e+00
