gyro_x (deg/s),gyro_y (deg/s),gyro_z (deg/s)
3.727116684498081589e-02,2.429552182165781865e-02,1.717521128199213029e-02
1.482816426430528384e-02,-1.424193683902446120e-02,4.615979177070057837e-02
8.212578817572281642e-02,-2.438103854840564452e-02,-3.877594856271044527e-02
-7.917771236830087322e-03,-3.270017094966355675e-02,2.678181563425876405e-02
7.274931904157262708e-02,-1.278714786044556420e-02,-2.612572359126564062e-02
-3.499633964904455552e-02,1.031059370084645190e-02,4.723290791374653436e-02
-1.415315188939782198e-02,-4.415706282176148217e-02,4.475345248437128981e-04
8.649385117423986219e-03,1.367715834540009397e-02,-7.508887673863406942e-02
4.332783486211262691e-02,-2.896612747086654838e-02,5.011892793571157134e-02
-2.571121469461844569e-02,3.814911308119264127e-02,-2.633176700170749771e-02
-2.253534062851131337e-02,4.939601243884480380e-02,1.253408050545367670e-02
-2.176060312302256425e-02,-1.199116849195741227e-02,-3.944596134843463692e-02
-3.223309084098008315e-02,-4.169477224319904224e-02,2.795777076746033124e-02
2.375001334196615368e-02,-7.335886108507568004e-02,3.245846945022339003e-02
-1.282840030612953861e-02,2.372429848908256048e-02,-4.513356000380254474e-02
-4.455079359531814720e-02,3.289313865330271980e-02,4.380194070477053114e-02
-8.976524104988468922e-03,-2.325781526830008293e-03,-2.471933655772247385e-02
3.404497787210346987e-02,-2.832404584190295702e-03,9.153434633056763137e-02
1.439803916244169167e-02,-2.555036201445318525e-02,3.871606147970427930e-02
-2.427721222263871242e-02,5.107298751885033100e-02,-3.663939802369702708e-02
-5.827646201530695125e-02,3.376254120511523737e-02,-4.031313451635486211e-02
-3.048709070262398124e-02,-2.617421612375874299e-02,-2.847746365767540866e-02
2.002536745210817259e-02,4.976454789271484574e-02,7.397610790399317127e-02
-4.126660550798113419e-02,3.014738161362328847e-02,-3.065781896733752246e-02
-2.913633334827104085e-02,6.831143935787366284e-02,-6.314919020813324069e-02
2.721302193344820111e-02,2.518182690954880523e-02,4.131591473499898748e-02
5.164744215468316385e-02,2.731552691573298566e-02,-2.560324053497406438e-02
2.588218487750391233e-02,-4.105097416683804040e-02,-2.263093213908995080e-02
-7.311273156580548084e-03,-4.909978936109779535e-02,-3.499661269869373814e-02
1.083016308241585568e-01,-9.469386509198018595e-03,1.828833909581537021e-02
-3.009825416722104741e-02,7.683228293653039664e-04,4.590614819154359427e-02
4.113667218929200481e-02,2.897060399784440188e-02,5.459568287339024856e-02
2.231752333053935600e-03,-4.743305477872191561e-02,9.848045425429033731e-03
-7.265166368713792122e-02,-4.904366562905008997e-02,-3.763957644634805672e-02
3.959678453191216307e-02,1.057068160127665538e-02,-2.113350904824872617e-02
-1.141334701662309777e-02,-5.381640671851561919e-02,-6.467027209433297286e-03
3.097128478716268743e-02,2.489365397530569554e-02,-3.147981343996407444e-02
4.978165600887245884e-03,-1.936695899067222837e-02,-5.510012524557623970e-02
-4.756455177162658560e-02,1.533715055422771485e-02,1.976323379587322307e-02
3.800571939517876242e-03,-4.185836404861165150e-02,-2.892426199435877560e-02
-1.676966714913731516e-03,-1.470819798927209925e-02,-1.352224217577726456e-02
6.725352500652530263e-02,-3.132625253520602421e-02,3.060998432991643772e-02
3.553128672051751591e-02,2.611326120319012664e-02,-2.818996679021206278e-02
-7.112560801503619960e-03,5.969288250724966161e-02,6.949285094345722391e-02
1.915919595239191225e-02,-1.413644297400639890e-02,1.234283463323901896e-02
-4.812913306194066543e-02,2.236542680309020967e-02,-5.734024031637936780e-02
1.645531392020063016e-02,-3.571557949393966425e-02,1.830937468952674799e-02
-6.115065244758342844e-02,-3.321563865094531026e-02,2.053388649966694443e-02
-1.409745584837426109e-03,-3.788848651565520503e-02,5.941864321785325642e-04
-2.306001059200820801e-04,1.534497914380315506e-02,-3.459753966149243382e-03
-6.571724139597521185e-03,-3.384380324333115947e-02,1.683629561295033050e-02
2.477789416460058833e-02,2.413766186793974561e-02,7.657159542668158514e-02
-5.842581262032536110e-02,3.037221207767185072e-02,-8.806668954147551034e-03
5.713915678791513415e-03,3.357276332631510540e-02,5.419628038312192947e-03
1.595066362776554822e-02,-2.956126436874309191e-02,-1.107672327699297382e-02
1.401993175416541698e-02,3.487877040977718779e-02,5.714802046113980419e-03
4.468185360231918118e-02,-2.163459727778840533e-02,-2.788833458594424525e-02
1.757877267269799051e-02,-2.837105676094274151e-02,5.526568616121105455e-03
-2.162755507150437503e-02,-1.648451690176536795e-03,-5.857674456553373446e-03
2.728015554668829223e-02,7.683864596188266782e-02,3.993509769967695799e-02
-1.100719110224723275e-02,-1.881650705516606584e-02,-5.121930450381458055e-03
-7.674747106530587296e-03,-4.565019745957945435e-02,5.923869579096012472e-02
2.931174381061351503e-02,-5.392598059410329964e-02,1.101071400829106012e-02
-7.878450564151002339e-03,-2.167124488704150892e-02,-3.607238237460429209e-02
2.009049806428277185e-02,-3.034011608357179215e-02,5.070874068165687198e-02
-4.062010645709435847e-02,4.406823652339995206e-02,4.575624274995675200e-02
-6.450135821435841466e-02,-4.153640095092986373e-02,3.120290515748046570e-02
-1.475879067251889207e-02,-6.760692003352525292e-02,5.227254906468677131e-02
-6.759303385241863943e-03,-2.173357768202059670e-02,5.728466220710007328e-02
-1.467027738022759096e-04,1.145475045653848896e-02,-2.577145189363898303e-02
6.759586463400411860e-02,-3.035639020647015740e-02,-3.232398079859723217e-02
2.509439709239756275e-02,-3.038803356806031412e-03,-2.105088872560949981e-02
-3.849820945522182403e-02,6.664713000161914813e-03,-4.523723009930688543e-03
4.025018570975649052e-02,-9.063748305562738250e-03,4.550870639136449930e-02
-1.849056501192479843e-02,4.411839137412137263e-02,5.523164578658804752e-02
1.071283042061274516e-03,-1.751869382528641397e-02,-1.946662819330509733e-02
2.655172868944805087e-02,-1.482919114449413045e-02,2.416171506490234419e-02
-1.744876295274453912e-02,4.074871804419052945e-02,1.914386873077460541e-02
3.764384647873450507e-02,7.180571792426503064e-02,2.954298833053465786e-02
-8.339717246711578214e-02,-1.003558709189433101e-02,-1.480016173356253628e-02
3.310446658837419565e-02,-3.707726178633729934e-03,1.555077364728120991e-02
1.969447351582790523e-02,1.785784568276688189e-02,-1.208276609668642275e-02
2.520971754241070270e-02,3.287084526338206972e-03,1.382359076363838188e-02
9.075524162448781601e-03,-2.225166321928771784e-02,-6.151070543146448105e-02
-6.199479344824380955e-02,2.088799920456725981e-02,4.193590263913080096e-02
-3.094624471451972586e-02,-2.162766226656947371e-02,1.274228605562681416e-02
1.800624206469310026e-02,-1.891407538056187956e-02,5.708552307472485737e-02
3.421761779129890019e-02,-3.271084637188794580e-02,-4.409761251443455876e-02
-3.277560209829390864e-02,-2.538167475913426924e-02,1.935200136515848393e-02
-5.210601434768075829e-02,3.662423243062945533e-02,-5.525111974812093457e-02
-1.281212905376213386e-02,-1.352369632842178454e-02,-3.376466200279281543e-02
-2.809545535344188175e-02,-1.917016396484523891e-02,-3.229041115007228596e-02
2.379030857483391877e-03,-1.573248052700132807e-02,-5.620389987879192972e-02
2.696171097777422948e-02,3.270086330980492839e-02,-2.023538541268300739e-02
-1.243273042331458772e-02,-1.016030441666610287e-02,5.311527443409445187e-02
-4.622447314910764146e-03,-1.016561747194119972e-02,3.839983065198544071e-02
-4.088272669528389414e-02,-6.891815749130898727e-02,1.439056249397459818e-02
4.461535112796279762e-02,1.315192079946039642e-02,-3.990208774141557058e-02
-2.243546674133858193e-02,7.693917314285010634e-02,-3.817823549763547757e-03
-1.524154637061648186e-02,-1.838485448363647587e-03,-7.172004421715192334e-03
-8.670420240242183649e-03,-4.438195871625036371e-02,-3.455292813656329204e-02
-6.500916106086911637e-03,5.684037530982154196e-02,-1.806085256960626717e-02
1.250523147930273325e-02,5.526262627889327872e-02,-2.972818554248945686e-03
-5.018902174508314828e-02,-4.386523269067096886e-02,1.661618924780002005e-02
-2.772219257894237288e-02,-3.713884087717291699e-02,1.366317501236860750e-02
1.918937612637765591e-02,-4.606439153275348336e-02,2.093079790433831702e-02
-2.747083214478353297e-02,-4.728872991261975911e-02,-8.186855739306586263e-04
-5.517880696213557472e-03,-2.440239152656832264e-02,1.916430469255719568e-02
-1.862034214784285754e-02,3.976951903448366216e-02,-8.001585752052825518e-02
-2.292740392132183377e-02,-2.901958774765716915e-03,1.016089424635985847e-03
-3.191286878935437055e-02,3.922333583708970985e-03,-4.643634135841027966e-02
-8.623264913280918875e-02,-7.108419292582608684e-02,3.586244558687468834e-03
-5.776102877062685471e-03,-3.133856335253090014e-02,2.308208204391328303e-02
6.626872952650699443e-03,2.117773639538733654e-02,-4.785616158749553956e-02
-1.928510179103252661e-02,2.452402031052130019e-02,-7.632598653374043918e-02
3.778981559183022809e-02,1.509322527274182743e-02,-3.866974728518081383e-02
-5.665985929092009826e-04,-3.487535407902453422e-02,-3.101226667225470950e-03
-6.775663224047304145e-02,-3.571728677552152287e-02,2.458169952658702945e-02
-5.064082898487377166e-02,2.944501446422844240e-02,3.649814618318344799e-03
-2.657129643166479538e-02,1.828168448511718457e-03,-2.016300264222994562e-02
-1.677215981420622504e-02,3.928411201978541240e-02,3.371210018007590042e-02
7.331645500459973291e-03,-1.150487241000231094e-02,1.671112955461727737e-02
-1.878768155774389326e-02,1.282324959397528920e-03,-2.683561013231858250e-02
-1.435490230788825927e-02,-1.100927903155502277e-02,-3.524426842644094726e-02
2.814145409153594873e-02,-9.907341563643062843e-03,1.354787615350372919e-02
6.405493444777790937e-03,2.727736261707326346e-02,-8.950542933224243242e-03
-5.678729000951765124e-03,3.101174428608938910e-02,-2.659414951359359222e-02
-6.685356120666904878e-02,-5.521528633086095206e-03,2.942160851700815431e-03
-2.571676611003488426e-03,1.162979811810532955e-02,2.511895891923433127e-02
4.265117456996662948e-02,-2.199635815230785787e-02,-4.993426067117059768e-03
8.773746944066792425e-03,1.533673093801750896e-02,-3.127255834525714123e-02
-3.018724661993523600e-02,2.679037766444860441e-02,-1.083682789248553539e-03
-6.440167497863587276e-02,-2.938140643668521804e-02,1.354257909806603696e-02
5.738605702241939693e-02,-6.919414906200718231e-03,-1.586468704477578956e-02
4.373490373180454263e-03,-6.736117458531859503e-02,1.861234359068069874e-02
-5.396063897749212024e-02,2.520696788940490762e-02,2.415934792142116622e-02
-7.085262543283028791e-02,1.869857859886393456e-02,-2.676168275203657382e-02
-3.111419709195200126e-02,1.960716132097328410e-02,2.900386264243754592e-02
7.517830470055722296e-03,-6.743924834785096183e-03,4.086639957488978625e-02
-3.623545046629370742e-02,3.594234444764155684e-02,3.123125384832076135e-02
4.466099942563002412e-02,4.427412901524141464e-02,2.523029451113062687e-03
-5.198163408911924549e-02,1.781336463274726251e-02,-1.365525205078830726e-02
6.148582842606344773e-02,2.277219240760558136e-02,4.264473513672428773e-02
2.407284666417749963e-02,-8.574190565549101584e-02,-9.022365278970476132e-03
4.246373789915427327e-02,1.204339336405634529e-02,1.744906837351939063e-02
-6.235730312947444787e-02,3.316701993805344639e-02,-5.412499034257278047e-02
8.537812133704544490e-03,-2.671995566549544010e-02,-3.535281670207288899e-03
-2.472854048030321064e-02,1.327214768346857013e-04,-8.304931596880721703e-03
6.435591983549599892e-04,3.438767972512357662e-02,-6.257166513923577943e-03
-4.951581044517801809e-03,7.452195098044895119e-03,6.746643214720853161e-03
-4.992744764348183706e-02,-6.144156647654892139e-02,-1.828103167447950317e-02
-2.477286955685337189e-02,-4.709043309434671025e-03,-8.518350179042334658e-02
-1.462156687799125686e-02,1.329481823304505365e-02,2.814500489087620391e-02
-2.854603543570362681e-02,2.393315194005051633e-02,-2.621128032163641194e-02
-5.315815759259550494e-02,-3.594130310314085086e-02,5.785280491081146170e-02
-1.090177150300249663e-02,-9.207831960361616275e-03,-2.928210976146395847e-02
6.929723314909976006e-02,-7.354735132766771800e-03,-5.480171837922526851e-02
7.713979903340916974e-03,3.687440936388892976e-02,-1.336406668790623281e-02
-7.599556617795845230e-03,-1.831042091521761436e-02,-6.859646723914782085e-02
-1.143943212003599484e-03,-8.021879176791030588e-03,5.321709450544614278e-02
2.503977027433676103e-02,2.724175935510331215e-02,9.598770241402458311e-03
-6.093392173377800564e-02,-5.700254514315528619e-03,1.770437371689671802e-02
-3.085841882997242616e-02,-1.823604678993113667e-02,-1.116119920747267111e-02
-1.587723726174739003e-02,-4.420418878035772305e-03,5.500371296653012478e-03
-8.045761450637773857e-03,3.932837791048585108e-02,7.054184418164059778e-02
-1.606637123688538574e-02,2.044954422104457159e-03,2.753988990720044380e-03
-2.515694699221230485e-02,8.465149462461513466e-03,-5.795097566522360022e-02
-5.649295889324933498e-03,6.070592270060057305e-02,-4.118314770458865459e-02
-4.124094978776656102e-03,-2.156075967289452708e-02,-1.877888315090935414e-02
1.215461269232862495e-03,2.846880999359000051e-03,2.739929353575350918e-02
2.393261075968731305e-02,-4.068337435995037638e-02,2.651318811018024343e-02
6.571970904095810265e-03,-2.823422750926536662e-02,-3.275229847397900101e-02
1.716231072515049874e-02,4.016971684657875789e-03,-5.922655093615272065e-02
4.882112680369969648e-02,4.086072521872009117e-02,4.469891910977161903e-03
5.971813994231143889e-03,5.388725936470693985e-03,4.090294792500151835e-03
-7.707179823778816108e-02,2.641072967996630286e-02,-3.228538770545216069e-02
4.623346266213702871e-02,-8.684026679730626197e-02,2.549622885315342390e-03
-2.947355565422380905e-02,-4.691878387260949024e-02,-4.065223655836922023e-02
-3.548537958690452243e-02,5.850815214114200857e-03,-7.966895381020303035e-02
7.985665270721944292e-03,-3.429156458600452623e-02,2.134382640063951786e-02
1.024829844694611670e-02,-1.661191905675855549e-02,1.380168325753959591e-02
-2.432615111654545109e-02,5.562644432670960093e-02,-1.084759884879506198e-02
-2.496696496190769013e-02,-1.725845717114055447e-02,-1.515100843086891660e-03
4.197910616491345309e-02,-3.669220090911710919e-02,-7.429938901452970076e-03
-7.470387916559961816e-02,-2.049224014117970519e-02,2.622354990729556384e-02
-3.633641460392573325e-02,1.930833086570662993e-02,-5.656380000159097476e-02
-6.996037371025657335e-03,2.117198382132494741e-02,3.358123851786951053e-02
-7.776681575138330582e-02,2.206495397022072494e-03,3.580495152148036736e-02
2.460633192253775317e-02,1.276315817724239451e-02,1.538362370649241917e-02
4.149302817281103062e-02,-1.753741365063688981e-02,5.336014330742724909e-02
9.211503884551858201e-02,-4.532331530782836987e-02,-1.154985664182529986e-01
-6.023080793811896524e-03,-5.776484848718843601e-03,1.669254144180990287e-02
2.190753621523726380e-02,-1.318799133428890519e-02,2.831463751628928577e-02
-6.433162474926180929e-02,-1.663576652174229495e-02,-9.801226463913405643e-03
9.372460614953281866e-03,3.772693940754663633e-02,3.740751109271693575e-02
2.293837694329042137e-02,-8.675194471600485013e-03,8.562876060814954282e-03
4.685538900403576901e-02,1.309410489555778989e-02,-2.677275824176294020e-02
2.850033135424111588e-02,-2.199475761710415617e-02,-1.188188170613733476e-02
-4.566831424103098835e-02,-3.089381319351471034e-02,-8.530239161335502474e-02
-3.986438699100214485e-03,-2.267459063813510173e-02,3.932052313371287022e-02
1.475024230494630974e-02,-2.251935155033383054e-02,-2.862011021578016179e-02
-8.748299206566709230e-03,-2.834288139782549162e-02,3.405983369333434509e-03
-8.376175666712899759e-03,4.376020543547534669e-03,1.154804895240019516e-02
3.934444005558240809e-02,3.839326789702057763e-02,1.029377125173001895e-03
-3.170885885225951939e-02,7.386584586810255627e-03,1.825591672965508339e-02
7.796149567065310121e-03,-4.259042933339155304e-03,-6.993451727426143461e-02
4.237258992197658752e-02,-5.277362112577192038e-02,-6.000266101396207336e-02
-6.791089273201622589e-02,1.126323294673658819e-02,-5.663032739758338922e-03
-2.875892674193991291e-02,6.639946319843498257e-02,2.268290588898614832e-02
2.973137793223603470e-02,2.254872414586580123e-02,1.522782750664221363e-02
-7.586160114995950041e-03,-2.365690371083806892e-02,-9.390964221282421115e-03
-3.707287736154162017e-02,7.228471153618540312e-02,1.507165195925496033e-02
-7.190039764686280421e-02,-1.980243670356183691e-02,3.449645925585380357e-02
2.397131139799920166e-03,2.630922179238738209e-02,1.748429054301878010e-03
1.598063620594391068e-02,5.728065920782590692e-02,-4.927429779147575462e-02
1.328106365843914789e-02,1.131567548787141761e-02,2.640472216115502882e-02
6.531392731978671873e-02,-3.097369045509939731e-02,4.231727480746478448e-02
2.280921816317776560e-02,-5.768840261033437999e-02,-4.472269467104905000e-02
2.736782113268508825e-03,-1.090690073952498007e-02,-3.588813581458603907e-02
5.912966900062878450e-02,-5.782277137680842671e-02,-1.880812192508625122e-02
-5.091758410457954825e-02,-1.249172728548403246e-03,4.032300960211981922e-02
-1.939587248801736760e-02,8.418708586756107684e-03,1.591590271500418347e-02
1.039101131698978719e-02,1.820862623578165668e-02,7.347985078191851885e-03
1.490216029110298657e-02,7.413769001452641394e-02,2.567938128251626845e-02
-2.800750963133069246e-02,5.927917141589465755e-02,-5.952331910085305322e-02
-6.252458369565418866e-03,1.177652312660614278e-02,-3.334622080814299977e-02
-1.668536600365667574e-02,-4.414568530629355003e-02,4.867996152525633918e-03
-6.211894282550212837e-02,-4.515280742339618236e-02,7.071195044588604595e-02
-8.399360892020181490e-02,-2.028877699689909248e-02,-2.068446775624667791e-02
1.620705302892044494e-02,1.724733948426587088e-02,-3.247482948507742287e-03
-1.480824169097588912e-02,-1.106276975482212155e-02,1.998923253414068807e-04
2.245761907176824571e-02,-2.937901041169461297e-02,-6.024675096901699334e-02
-8.227576670452622573e-03,-1.381034866575297886e-02,2.394905780276558246e-02
1.271478100561685559e-02,3.136531260033840508e-03,3.956158507315462453e-02
1.964064853122599215e-03,-3.853157137990529529e-02,2.109679068076224587e-02
3.454742587012570032e-02,-6.547522975162987750e-03,3.836686747078649120e-03
-1.249011643853048178e-02,1.746909235007953684e-02,4.980645968699849713e-02
-5.714416664054094985e-02,-2.244799740173336611e-02,5.606032331142864894e-02
-2.715247978016709432e-02,3.211246191062854666e-02,3.299716154245412730e-02
2.626898626540793980e-02,-4.137156220256343192e-02,-1.959819390883028520e-02
8.139613030603764718e-03,1.597231339392901975e-02,4.577939791315562001e-02
-2.961350952844925971e-03,1.242485582106150378e-02,1.889588553872975293e-02
-7.160168012288830285e-03,-1.363209149230871012e-02,4.392497423789858135e-02
-2.666740956837563431e-02,-2.630468066390205875e-02,7.983391034070116965e-02
-3.180845629916122241e-02,2.636613280067829843e-02,4.275602838014856688e-02
-4.966327898626800991e-03,3.519681272988828963e-02,-1.877178399529737599e-02
-1.742010146351517796e-02,3.113385983373967089e-03,-1.989702316699332434e-03
1.450732824126108218e-02,3.773389211741547816e-02,-4.255249195112655036e-02
3.148750663359481568e-03,1.734456881289975216e-02,9.444609190660920722e-03
4.064172479161046181e-02,6.755261080353706926e-02,-3.864114030915229148e-02
-1.852737389978069416e-02,5.055816475032874624e-02,2.421227907214481417e-02
4.583297298277272738e-03,-6.913027826323443238e-03,-2.537017424627880519e-02
1.780785745938441231e-02,2.725704426835621683e-02,4.744113035597426892e-02
4.737970197051192406e-02,-4.941696159800460821e-03,-1.598011122045496155e-02
-5.109651869839950539e-02,4.482582694149028768e-03,1.101167527738704070e-02
4.628260067285405906e-03,-4.617191454246680204e-02,1.235198346151783651e-02
2.738144483242206662e-02,9.565193646912590816e-03,4.512620472933224873e-03
7.252244521111998743e-02,-3.703319659298222950e-04,2.621715005346342969e-02
3.942603091603632398e-02,2.448832524602493482e-02,-2.258459427474874875e-04
-8.659790743592011425e-03,-1.545521793667559672e-02,-9.039061293951751105e-03
3.793537006462936040e-02,-4.108511940588174122e-02,3.274796421712958955e-02
3.988426642868270894e-02,-1.239360256652674401e-02,-7.620586538456944337e-02
-2.260242394145613870e-02,3.624034075327225296e-02,-3.934482175278125604e-02
-1.522996883227042617e-02,3.137159114852241387e-02,-1.720151806375685294e-02
6.873809635219370329e-02,2.118723691890832261e-02,-4.622969319476267352e-02
-6.294197037766013914e-03,-5.526021058150376586e-02,3.581699042004337502e-02
3.250555958756150277e-02,7.885991927546133484e-02,-3.305866653874001138e-02
-2.571619160956646263e-02,-8.952208343528128554e-02,6.672506543586344263e-02
-2.887112186159454530e-02,-5.684516376612799848e-02,-5.320850683777531009e-02
2.234626023921497742e-02,4.317170007204539084e-02,-2.246280874033591488e-02
-3.200387162936229896e-03,-4.508060559652956288e-03,6.719197893633123420e-02
-6.479931915031962066e-03,-1.001331060287917810e-02,3.896644583402747442e-03
7.461506231136932421e-04,-5.346687304876937552e-02,-1.877516576949205332e-02
9.339235766570041369e-03,-1.209336898976443725e-02,-2.968214799119901076e-02
-1.538164267998251913e-02,-1.344086046900388326e-02,-9.446809856958287774e-03
1.672101649227597867e-02,-1.597661606865092426e-02,-2.101294428264164488e-02
-1.256592631137105030e-02,-1.092212208372937525e-02,-7.317058202314973003e-02
-4.890538668523457949e-02,-3.232318118407974394e-02,6.464738897940053297e-02
-4.999659643457117497e-02,-2.938126875168318997e-02,-7.757485864576536827e-03
-7.910084967879777579e-03,-4.861350803983632667e-03,3.742681324829638320e-03
7.414176676185635362e-02,-9.883152764226448700e-03,-2.491286354285536173e-02
-2.868716481528678017e-02,2.049906644385463656e-04,3.836783099256372426e-02
1.775286690879718590e-02,6.449118691982136733e-03,-2.474563513328455200e-02
-2.214252002264361849e-02,-2.202408072939827238e-02,2.156647574123636470e-03
-1.522130605043266541e-02,1.345302277403699620e-02,-4.089174166179166889e-03
-7.779363902176515688e-02,-1.316449224162151779e-02,-2.254565161160608511e-02
-2.563421554490374205e-02,-1.961092620052197824e-02,1.181880599275668756e-02
1.090748171215602351e-02,5.146693539414895491e-02,1.664872638434296628e-02
-3.172728531240949761e-03,-7.367274738876218587e-02,-8.606047059440754968e-04
1.866163526941168327e-03,2.799718770736170717e-02,-4.041900801667604182e-02
-2.212077625344404525e-02,-1.745527356373962127e-02,3.109178115312749568e-02
2.073282264639729477e-02,-3.747541179181340405e-03,-4.069918272259830626e-03
3.473466267627808163e-02,1.934756764976324275e-02,-1.108058810319807394e-02
3.419494181957533768e-02,-4.959936363308688201e-02,1.696547495419934229e-02
3.569868455709364341e-02,3.706437104308091951e-02,-2.139620145686862984e-02
-1.674315338857568919e-02,7.873859484227914039e-04,4.052968721748003052e-03
4.128247102651973199e-02,8.276208666872227754e-03,4.354095854780944824e-02
7.158780472518587901e-05,6.159564151249305453e-02,-1.446917658054183708e-02
-1.580967868224196493e-02,6.468372668712167595e-02,-2.663557953829133809e-02
1.219290913971673648e-02,7.465586503456006495e-02,-4.444186399584314912e-02
-1.853142798417600420e-02,-3.386791134589223901e-02,-1.425785138172157990e-02
1.882673890551471441e-02,1.890513557628421826e-02,1.686904906125347159e-02
4.023265380292988941e-02,1.887622329003945526e-02,-3.724060496347925825e-02
7.162432155695089286e-02,3.714512427303033604e-02,4.031894406046541285e-02
5.982308240243410652e-02,-2.109782996565500238e-02,2.921268570744969123e-02
-2.349561857583294319e-02,-3.995819283746791101e-02,7.921159759175380266e-05
-3.465855754124289728e-02,-2.935979903898140037e-02,-2.004855856503099613e-03
-1.724470142524428540e-02,-4.406390317597626977e-02,9.390721943415170081e-03
-4.050155203923722080e-02,-1.922081325369184163e-02,-2.980925614505237561e-02
3.314352463614889544e-03,2.922080970612563403e-02,-2.262916158154184079e-02
3.548401665438925129e-02,7.809465859459739645e-02,-1.976581982387468073e-02
-9.902006032511104575e-03,1.237459067348631141e-02,-3.585597414956095269e-02
-1.989959588126036238e-02,7.318321838730917905e-02,-3.607995995973429376e-02
-1.062559159805577383e-04,2.778596201733919691e-02,2.513156585169787696e-02
-1.128691717087199238e-02,2.724877392342640869e-02,-2.658838130034853198e-02
3.232374229063500470e-02,2.137314812131149364e-02,2.373830402401190878e-02
-9.357864648635860760e-03,9.653480000564800684e-03,3.334334852705675423e-02
9.216882758230815834e-03,-9.617561931061571756e-03,2.909312354309178533e-02
-5.641946393422611616e-02,2.655871630172642814e-02,-2.738519796220378281e-03
-5.147581339065580852e-02,2.403110649363550400e-02,-2.343256503997723575e-02
-2.549358538445860647e-02,-4.962762793140276449e-03,1.213358164203617341e-02
2.801023250422572664e-02,-6.567525394694921637e-02,-3.542949833673497695e-02
3.962157351452056525e-02,2.705761608206525178e-03,4.970422829763054655e-03
8.273421271322176085e-03,-2.069417140473387914e-02,-2.011082688226315321e-02
-2.130361949016738171e-02,-6.410636214059240758e-03,-5.466430757145394198e-02
-4.261525433751714442e-02,-8.016835209670374052e-02,-3.799396619879587354e-03
-3.016552698085834747e-02,5.064609235020257200e-02,-4.868476487315673978e-03
8.391570770967311799e-02,3.570110203059959075e-02,-4.707769569213944572e-02
-2.957721919421886503e-02,5.303632787937236776e-02,-2.032816765144285567e-02
-1.282048357786033654e-02,1.156813485452540778e-02,-7.224480277719733112e-02
1.091420996452174309e-02,1.951645829257270259e-02,5.148999330832684795e-02
3.990684645959145793e-02,-4.054439888882402539e-03,-1.019949453911173955e-02
-4.189252217244313070e-02,6.039165261385089772e-02,1.752095909316652572e-02
-5.629319133560682642e-02,-1.269103882863305797e-02,-2.651830822919630515e-02
7.407719422588145142e-03,-7.032379417084176285e-03,1.006575536492625503e-02
3.324987236665191692e-02,7.868952808635724938e-02,-7.089171253434593811e-02
4.126839347519294793e-02,-2.597981341784245599e-02,-3.195723637288976071e-02
-1.049233727129059990e-01,1.141434216949977973e-02,-3.648346273716088217e-02
-2.060023423482231289e-03,-2.290985424032805640e-02,2.405898006843099068e-02
-6.332760561385741838e-02,-1.860580845961620419e-02,-9.083453594632076447e-04
-1.697552270479454548e-02,1.638683381458738014e-02,1.479127682186153619e-02
-3.990854029135669501e-02,4.663543826044427160e-02,6.005540516328878448e-02
-4.439954812985821841e-02,-2.269180607187306145e-02,4.158046114477242927e-02
4.292381008731428055e-02,-1.293492903454367127e-02,6.579131281889378374e-03
4.420910097860856341e-02,-4.138499598123602206e-03,-1.748642914597249576e-02
-5.305423749144127371e-02,-4.622688915123384507e-02,2.621704375120281413e-02
1.184784132224829881e-02,-6.239916820909528587e-03,2.622809219469128452e-03
-7.024999284188863068e-03,-1.512418299212186200e-02,1.160326403693831988e-03
2.272671667423083533e-02,2.051279180026779891e-02,9.760215459031450908e-03
4.565625276782843411e-02,-2.175158456552417699e-02,-3.190096449332654321e-02
-3.626552595173646726e-02,-9.919021332704778746e-03,-2.191313440705684040e-02
2.366283069777665518e-02,-2.176899261763915600e-02,-1.573515845181050476e-02
-3.292494789043817760e-02,2.262387506322853514e-02,3.110192645811297660e-02
1.287268672886416471e-02,3.694555787459661254e-03,1.057248051785751250e-02
-8.369026524934949571e-03,-8.102900203319161540e-03,3.189808273527930393e-02
-6.692095948507299774e-02,2.465464047632140096e-02,-2.902055083354515910e-02
4.757778056613300686e-03,-5.983402791072704729e-02,1.916261422852847535e-02
-5.288073756175654117e-03,3.805505677631525197e-02,-3.119934307305204102e-02
1.917070612364261614e-02,5.011848878029836335e-02,5.779223479321081436e-02
-1.223555108962697327e-02,-4.782945001984376110e-02,9.418169874891827928e-03
-5.332551637897417658e-03,9.210720766632695192e-03,-1.629834972361093870e-02
-4.435224204766517742e-02,2.174527616680971276e-02,1.513594599014409826e-02
-2.595953560348186751e-02,6.857765526910950676e-03,5.935271762391407246e-02
-2.406132238285324174e-02,-6.998011947298013631e-03,9.524751368797229611e-02
6.292525818646829694e-02,6.535794460211841184e-02,-1.103741569586338782e-02
1.779702725250365686e-02,1.894223742814734462e-02,1.198325835564166900e-02
-4.626236322309577181e-02,3.241303684112090827e-02,5.006251570888442179e-03
4.803141905715344745e-02,-2.494350785431262776e-02,-2.453350845211564601e-02
-6.007967044119108535e-02,4.333789115276785731e-02,5.033043058399847003e-02
-1.258397205351733002e-02,-4.169922760711882587e-02,5.294860876485053824e-02
1.613907082595063616e-02,1.394959600027439670e-02,-4.719669840623916257e-02
6.010864751729830951e-02,2.683313107872635841e-02,8.005416306358158207e-02
-1.817076180977377766e-03,5.969920619898958641e-02,-2.069347703495032914e-02
-1.754765396569254315e-02,-2.269297374655865340e-02,-3.168926794116965623e-02
-2.538679379403742387e-02,1.828003706604168499e-02,-3.687513980505772310e-02
8.186250562037486814e-03,-4.177290938197423392e-02,8.106746532821298978e-03
-4.709704904943382009e-02,2.424112520833550735e-02,2.114552348051645936e-02
-1.635145826773228700e-02,5.431957566717803693e-02,-5.973769681355566019e-03
-1.121262277872309317e-02,-5.238762419572358386e-02,2.373788374817503363e-02
-3.316840465253642622e-02,-2.755255594519829751e-02,-3.696052183976944461e-02
7.894239591208622453e-02,4.032007537540206570e-03,-4.074778056900650244e-03
2.531769883393802933e-02,-2.525761852539003260e-02,2.742983576737409099e-02
-6.068682836387515739e-02,2.475920192382830010e-02,-1.696826752638987482e-02
-1.641570537795057974e-02,-2.061901775552476071e-02,-4.671217440449812464e-02
-2.134820626205392174e-02,-2.499336212833421292e-02,-2.587442609372380374e-03
-5.454894181116932972e-02,-3.397058704628096865e-03,1.743700877338632063e-02
-5.417519302939349107e-02,3.204877922411208946e-02,6.631551165315796581e-02
-1.597408015074827659e-02,4.537493242375240099e-02,2.081720739655151461e-02
3.511814313508931223e-02,1.403749430026243923e-02,-6.736846685096865850e-02
-1.011774821962523573e-02,2.501753201443050745e-02,-1.098213324958342493e-02
1.260680128269631682e-02,-4.554939491013512698e-02,1.051199311622013841e-02
-4.019951611511417972e-02,-1.056835241711114037e-02,-2.186802022070218759e-02
1.353350152766338681e-02,-3.371676355029673555e-02,-3.970684350077634261e-02
-4.905885483947697301e-02,-1.153513760410087297e-01,-4.208340752095565684e-02
-3.962086981588679863e-02,4.509937260241694834e-02,5.476280039624786128e-02
-5.110386277272239985e-02,-3.710937985106987219e-02,1.140840863169858416e-02
4.133583832537070235e-03,-1.067087924753226322e-02,2.132901391293936470e-03
5.057885084197776167e-03,-1.702194237544402480e-02,-7.497902308071881564e-05
3.670432788858971063e-02,6.610254876903778887e-02,-2.315572992465101190e-02
2.422206048580785587e-02,4.345691029614558686e-03,-3.884631311140902127e-02
-4.667676273761280081e-02,2.940829847874042863e-02,-3.932692465559573664e-02
-6.485957963474690835e-02,3.638636581012076598e-02,-6.295522689265350968e-03
-3.776675314321888133e-02,1.566956920073943674e-02,-2.097132368666429665e-03
-2.181284578925698700e-02,-1.419087036475928827e-02,-2.681797517471253348e-02
-3.322071814884384328e-02,-6.777430942494093447e-02,-3.731154823926741484e-03
-3.332198652616836371e-02,-2.237012013616958284e-02,2.899466246834075597e-03
-9.262592183186604822e-02,-3.033867292129123483e-02,1.614818846655248150e-02
-2.613227066188031009e-02,4.561705040758832347e-02,-7.278999346395433057e-02
-3.999823994270739619e-02,-2.438773325720713838e-03,2.805177251186989282e-02
8.995168374885127716e-03,9.938754772311779798e-03,-3.404239402111653573e-02
3.021097462878312781e-02,-5.174515005205237994e-02,-5.233693242693938236e-02
8.974110375145645871e-03,5.939026686614589864e-03,-2.545228546051877400e-02
-2.012105904532353676e-02,1.168780708051818037e-02,1.296303512315843433e-02
3.034140878750973477e-02,-1.010215439225066875e-01,-7.179807360262667471e-02
-2.125024237102644473e-02,1.311379472511177251e-02,1.160889828093784708e-02
-2.025934444401794599e-02,-6.099841050392091485e-02,1.727376471452249374e-02
-4.009055403593136252e-02,2.577556042511512657e-02,-3.411304081073512212e-02
-2.182188346077977917e-02,2.001693662069932433e-03,1.633654125859789960e-02
-1.169352600709998129e-02,2.177258221416445566e-02,4.523937094574846662e-03
1.470297960981104511e-02,5.698969706021406179e-02,-4.257616709422556295e-02
8.899558388474666792e-02,-2.738298887290787839e-02,5.776627004960966510e-02
-6.908874185912629307e-02,4.897166682865981835e-02,4.130761216204304614e-02
-1.965993646445119564e-02,2.434597239654206352e-03,-2.705860652029327615e-02
-4.904769256116812970e-02,-5.337226501604094148e-02,-2.355199034228664876e-02
3.657854852079548552e-02,-2.253658495811492607e-02,5.771797611052140176e-02
1.900315882422131536e-02,4.344371538370159214e-02,-1.083149811762272249e-02
-8.090967751161411842e-03,-1.525315006403939709e-02,-2.940088379682139624e-02
2.094162801889093862e-03,-2.439519977654619129e-02,2.202653916871137596e-02
-5.531194350805408028e-02,-2.324522828513225434e-02,2.495266141103458929e-02
5.166890344838537263e-02,1.787236197251086678e-02,-6.436934114820896946e-02
4.505357454346673590e-02,-4.737237620558677753e-02,1.581659078784240866e-03
6.139792348680273015e-02,1.207625813666374920e-02,2.095009237051849438e-02
6.263932157841611836e-02,1.053834365442847705e-02,-4.188389823669499620e-03
-1.441923162283098060e-02,3.414097073525319131e-02,-1.839473040358548250e-02
1.121570754130618748e-02,-5.094839417448194380e-02,-2.941346544489312903e-02
1.016532726546331110e-02,1.867549109125233794e-02,-1.154422727922606827e-02
-1.249934691404590986e-02,-4.807479148605543762e-02,-1.140569742406547481e-02
4.481445892568174105e-02,-2.393457197358400332e-03,-4.551851754093991925e-02
1.940862273974712851e-02,1.188132331851182201e-02,-5.191721698258549428e-02
2.202576694091161469e-02,-1.908814864482990051e-02,2.428810165646014263e-02
-1.174529634068655591e-02,1.232142788301098663e-02,-3.369127426121187874e-02
-1.802084668054990818e-02,-7.189976590153362990e-02,-2.767704005593549579e-02
3.060927014778675945e-02,-2.430060014044319039e-02,3.290442621589134697e-02
1.176117085170398126e-02,1.589656506108827125e-02,1.053352244769030152e-02
-7.770760566623910459e-02,-3.462349180621755729e-02,5.814955302612535848e-02
1.340666413790707161e-02,-2.124846893427637107e-02,6.103356257703577981e-03
-5.448371667745941643e-02,-6.158198897045698977e-02,-6.371652891430545050e-03
1.431899277134038827e-02,-1.750954657133623263e-02,-2.301190935134105747e-02
3.539590886448126111e-02,6.687418538541953748e-03,2.520500720180442536e-02
-2.038606160538432299e-02,-2.091966110562580583e-02,1.410816196045005903e-02
2.293940791895176731e-02,-7.303591315110917297e-03,5.798163202005097994e-02
-2.208263609824383245e-02,-5.126152118207263214e-02,9.787743135331503086e-02
4.516385532481367177e-02,8.793126311755665447e-02,7.016158833762968505e-02
-2.118061236366423558e-02,1.247661631528574179e-03,-4.658688479681805149e-04
-1.139747653425575089e-02,-2.756676284676869843e-02,-1.652163845486364843e-02
-2.011998701078510088e-02,-2.551254416401411290e-02,1.521924830903330014e-02
-5.351630478850637109e-04,-3.711032627836460124e-02,-3.316006496043275020e-02
-3.136414862081191718e-02,-5.490382463763458093e-02,-5.206442475641256777e-04
7.459164509204758119e-03,6.627257466765056060e-02,-5.103471472005090270e-02
-5.168824599116197266e-02,3.509486064104259256e-02,-2.510504615659307770e-02
-1.152741204933582439e-02,-3.546625810444401644e-02,-1.778295340089760743e-02
1.392251252192272352e-02,-5.277353583708992157e-02,-5.969427253701106717e-02
1.519104334327967161e-02,-6.396556667111763517e-02,4.375801578962529303e-02
1.802796491004118873e-02,4.557989645534398643e-02,-4.477505163050237574e-02
-2.650413027130438855e-03,-6.804087292297193723e-02,-6.434156354619535029e-04
1.581152597483640940e-02,1.822484917076566679e-02,3.182721544574242806e-02
2.268084163268879738e-02,3.650859691664700563e-03,1.767341545320114766e-03
3.877892506605670753e-02,5.191417727184747394e-02,-2.199759245460875326e-02
2.018015979987556122e-02,6.612768397578454305e-02,-4.376971090536831838e-03
-3.515265243885860869e-02,-8.988468681174461780e-03,3.713820728315425646e-02
-1.710888079983413287e-02,-2.673952016062342008e-02,2.812035960753831235e-02
-3.651922384599683158e-02,-2.138253860008637597e-02,-7.825060383579704459e-03
-3.258032847091334172e-02,-2.922164153261802566e-02,-9.109959354967592585e-03
1.404878807708930151e-03,6.189597914641690318e-02,-2.352088525539528310e-02
2.702210903440931122e-02,-4.759958874685726524e-03,2.292345861344214503e-02
9.462397053833119381e-03,1.216071717409948454e-02,-7.639723824403875201e-03
3.869943101459771134e-02,2.849892142233494477e-02,8.993752893819409455e-02
3.160498918416326103e-02,-4.280167700508080708e-02,3.798221304356973280e-03
3.013810223063551064e-02,-2.577572505258560187e-02,-2.696036960719444715e-03
-5.517143596285908197e-03,1.453642285975237196e-02,-1.783699298979087716e-02
4.908351472349544581e-02,-2.558256786529924433e-06,-6.147362087892804111e-02
-3.749286398552968691e-02,-3.668706058217527030e-03,5.180543250259986472e-03
-1.483602153543707274e-02,-7.017758650656302777e-02,-4.991273251980388875e-02
-3.545818219855148556e-02,-6.354089650137088874e-02,-8.802162537607981230e-03
-2.953460446124177297e-02,-1.521289375247023359e-02,-1.476954327665491382e-02
-6.526339274158606983e-04,-8.036766670378800307e-04,-3.874067860486353487e-02
-7.086853010844598386e-03,2.192240711192388128e-02,-2.259205240137098815e-03
-6.666279055336453430e-02,1.028179198294408049e-02,2.537027085040510083e-02
-9.478255081844538799e-02,3.542973700406956868e-03,1.944359782838976647e-02
-7.363033175762619120e-02,-1.452061030076265413e-02,3.177434418447287485e-03
3.716381892445925345e-02,-4.158528987440200664e-02,3.126837608684849418e-02
-7.731339375136645105e-03,-4.129573477543328763e-02,4.489991692060336242e-02
-2.016617815986326487e-02,-1.073260166272886097e-02,-3.905717233701643670e-02
5.524776840300573560e-02,-4.527344302083268629e-02,-3.576251158831460220e-02
-4.432531675999019927e-02,1.425639438526267455e-02,-5.325201986507185903e-02
-1.487084340778773058e-02,-1.642277378016507652e-02,-2.185289420603623092e-02
7.170029231499339128e-02,-4.297671369462559288e-02,8.695903653696454225e-03
-2.157281831173818443e-02,9.000069242966684396e-03,1.067799609818957185e-03
-1.839532253596917050e-02,-5.559455625600322019e-03,-1.533225872731355799e-02
-2.777401460587140564e-03,7.190924095269547039e-03,-2.016808913535484901e-02
1.518472587603146139e-03,-1.501734946322210752e-02,3.674596166960202720e-02
-5.552147130926787799e-02,-1.615188238608362276e-03,5.562596628784927284e-03
3.455044452435219494e-03,-6.722913468380692370e-02,1.305224195035671782e-02
2.368892564687337041e-02,-1.977825154517573805e-02,3.062900455449585682e-02
-1.447338196061800746e-02,-3.966383794376534405e-02,1.125700163541750766e-02
2.356919123889631221e-02,-2.431713883318004522e-03,1.210570128164697133e-02
4.170857263197488840e-02,9.936438681071307552e-03,1.909930669497868910e-02
-3.699794696115217291e-03,-1.419727323420861415e-02,7.347087954009891460e-03
1.962617164856879826e-04,1.119230175220696857e-02,2.245520939819302744e-02
2.094296923305008148e-02,1.700062284631663478e-02,-6.256298473496351049e-03
3.541641490433206779e-02,2.845436330277654677e-02,3.493543230858935783e-02
9.719376886509735469e-03,5.085557329465014570e-02,-3.846667711217545416e-02
-2.737058614954499328e-02,6.924295851241368642e-03,-2.898531430856103597e-02
3.624592323430624735e-02,4.643371680571490440e-02,-1.929877434394806218e-02
9.373935656148420226e-02,4.382343275933793525e-02,-3.877021289580948223e-03
-2.335940478833436681e-02,-3.356504111845556859e-02,-3.521036272476045503e-02
-6.810022647935054345e-03,4.306978761708970399e-02,-3.330105955059673578e-04
1.253564560901918425e-03,-1.573160709853745412e-02,-1.605486610856727073e-02
-8.715378575776196873e-03,1.083749233491349342e-02,1.542388149971419577e-02
5.598256112004752066e-03,-1.241282187374862130e-02,2.461775587262847800e-02
3.858273560822236825e-02,-5.199353160429423526e-03,-1.880675358840536767e-03
-3.359876241460725554e-02,-8.534124597817533894e-03,-4.772429634941487836e-02
-4.412160125599808719e-02,5.747552676143032752e-02,-2.491222386946798095e-02
-5.267398712049418952e-03,-4.147184706702240070e-02,9.777159989483552929e-03
9.593208796634703286e-03,-3.679243485419750326e-02,2.983433893676276649e-02
8.919588263727809552e-03,-2.109382428960049349e-02,1.227706531506539064e-02
5.307572287423388026e-03,-4.578524890993830587e-02,-1.222807805619073943e-02
-1.343848295897566957e-02,1.216810072935553023e-03,4.286359455654056849e-02
-4.617813449645631618e-03,-1.344581080764561086e-02,2.978769933802348502e-02
-2.239802408220578286e-02,6.302794713013010197e-02,-4.436928201224479146e-02
-7.137738738376653291e-02,7.206382597211764829e-02,4.872581671085169513e-02
4.207568468128445455e-02,-2.782513513802424912e-02,2.030697923088201420e-02
-7.911138872871459338e-02,2.127373764078361804e-02,-1.918535192465171610e-02
4.439356923215424799e-02,3.893103541394768441e-02,-3.215734951743072501e-02
3.086492794656687036e-02,3.442585080873546838e-02,3.787716271844014659e-02
-1.788180252205641765e-02,-8.940724934269832225e-03,4.058810297786084181e-02
2.200201886958796232e-02,-2.072172318876052549e-02,-4.988272865801376965e-02
-1.150689864921660907e-02,3.252850754400627743e-03,1.657574422900869038e-02
1.648368204930904940e-02,-4.054136834692110419e-02,-1.378398613990179135e-02
-5.839308414638328532e-02,5.715250399199652692e-02,1.625722485364469727e-02
7.993604640803180991e-03,-9.862049022315246341e-03,1.337465585522500285e-02
-4.578265830412936964e-03,4.028829995258875751e-02,-1.707789296197770659e-02
-5.088083718508409903e-02,-9.904040799399559808e-03,1.657676449417406703e-02
4.395393490580831730e-02,-2.345938195266946552e-02,2.878530512214542633e-02
9.085983737397307011e-03,1.804964417904350235e-02,9.287503972712943950e-03
8.070338194449361291e-02,-1.379260301316479788e-02,-1.847484072231279917e-02
-2.625018595618280534e-02,-1.732774218896290103e-02,1.740941557496458389e-02
2.020937134734889038e-03,5.501382635489559386e-02,-7.256363053976985777e-02
8.969542708019587890e-03,2.428244561895791589e-03,-2.966657617151946535e-02
1.247100457173889836e-02,-5.393402308972944370e-02,1.807543945425373402e-02
-5.162273630194746943e-02,5.752716128916784098e-03,2.393665606190297293e-03
-7.157049517103780678e-02,-2.590107842061725382e-02,1.189141024019309961e-02
1.588989903810104952e-03,-3.957573398333172343e-02,-2.248602720174165247e-03
-3.808711982646398320e-02,6.907064539329475263e-03,-3.733722201236604893e-02
2.453677899322179168e-02,-1.935585912816085996e-02,4.450791171434177046e-02
-1.071865655138203727e-02,-1.295756443323608370e-02,1.434445763024587775e-02
8.417233753172730093e-02,-3.213489779878603986e-02,-3.979953395283698098e-02
5.381318729005304946e-02,-2.654080756662455243e-02,-2.082094504511434671e-02
1.858189388427192515e-02,2.404434673984272297e-02,-3.905794613057367998e-02
-7.318260741439588934e-02,-7.287171448981570598e-02,-4.216164968347835967e-02
1.214605931604026239e-02,8.758905932270247968e-03,9.254017436057219645e-03
-1.029729343947755407e-02,-1.601603714989525973e-02,2.190865716547274120e-02
-5.120720315964358282e-02,-1.314432289886781693e-02,3.027591448487702841e-02
7.512166182005830528e-02,1.659229001196909498e-02,-4.243604460853761529e-02
8.719097539541240116e-03,-5.471666057386564974e-02,5.058779996999217266e-02
-1.689812125436716828e-02,-2.317462973959475217e-02,1.701372099643615882e-02
8.248483990045371236e-03,5.610510438076191791e-02,-5.258507674362781353e-02
1.041269564268151523e-02,6.023854514172539282e-02,3.141895669348201969e-02
-1.092984078461648953e-02,2.542078507316482966e-02,1.094941755894889845e-01
-7.143156376700469760e-03,-3.588188817719954044e-02,-2.252415659412915910e-02
-5.997297676321559218e-02,-3.177419567557639157e-02,-3.757384544137336996e-02
1.665833155311688060e-02,-1.303779778935080548e-02,3.455962596114928176e-02
-3.890374009208496381e-02,1.835243992295042606e-02,3.325827063897698888e-02
-3.457012080644757124e-02,-2.458743481125067409e-04,-2.107316829225215973e-02
-5.845599953574417279e-03,3.084593258961136966e-02,-3.992625365026267886e-02
1.028796754339545219e-02,2.964540306141043302e-02,-4.036990106439824338e-02
-6.529346844861473598e-02,-3.473899930643357947e-02,-4.620491319991593820e-02
-3.173022426333013679e-02,-1.090493677109385159e-03,3.438280851805484289e-02
2.076866064628043670e-02,4.512544288588987186e-03,4.845637444853748838e-02
1.351330739243963332e-03,-1.316050610458576776e-02,1.678350090762954338e-03
2.188257270542476915e-04,2.731002970739491997e-02,-1.528861212196478206e-02
-3.228544541248313388e-02,6.508741351938145125e-02,-3.370498016386411222e-02
5.679138618952984810e-04,1.967202364048009546e-03,-1.100155435875016692e-02
3.841275599829462734e-02,-2.061286333147484273e-02,1.209397949147948681e-02
1.047746207480004278e-02,-1.437680616195073473e-02,7.029892444678692565e-03
2.538521205465040995e-02,-4.385777988250725429e-02,-6.632195990710228195e-02
-4.560574135491853032e-02,5.745329122577461783e-02,1.600286620717912209e-02
-4.122795447096834660e-03,-2.986771332362909981e-02,2.444528750318590224e-02
5.136695111322252261e-02,-1.442988091783140372e-02,-1.109666810886925786e-02
1.056521915677151140e-02,3.661033183092702453e-02,2.550314803210438838e-02
8.175345425494947096e-03,2.828882151613433885e-02,1.555696167081353602e-02
2.027790439572581607e-02,-2.224086558473362812e-02,2.311511188186415270e-03
1.628184889387309644e-03,3.853973097043992407e-02,4.901457042323927732e-02
8.202324394060098167e-02,-1.120342495305158385e-02,-4.397461969047196384e-02
2.376613915273798755e-02,-1.719660026456441490e-02,5.893215853659482251e-02
2.942948787197149224e-02,-2.891411294215004077e-02,6.283020795510953216e-02
4.261924306376010940e-02,6.587142483173277774e-02,-7.610337389043644526e-03
-6.889792942127979936e-02,7.000637509548185422e-03,-2.945876768667899867e-02
1.135063472496092123e-03,-4.776637710879620691e-02,3.214973891190779642e-02
2.559526674214988515e-02,-5.224279357385278044e-02,2.081620202064302094e-02
-1.936805213906673054e-02,3.297480305972178005e-02,-3.428718284801992450e-02
-2.173810078311095781e-02,2.624995103997168275e-02,1.227212978757735717e-02
6.856000628402375563e-02,1.469683867638096365e-02,-4.415437887896915548e-02
4.483087966575496214e-02,-1.871379923726028405e-02,-2.075433737837800371e-02
-5.470572357525035206e-02,8.080227316337999788e-02,7.045386627395052413e-03
3.774848242315746727e-02,-3.485206250528038313e-02,3.875266268477688125e-02
1.431485988959474605e-02,-4.538270716785854086e-02,-6.977154649230946082e-02
2.724318683633889827e-03,-1.222228134745274170e-02,1.590564322125653449e-02
-1.587644110354390070e-02,-2.426401826407138806e-02,-5.537314122435535446e-02
-2.807237424752700994e-02,2.718545758368661261e-02,-1.006994676254414391e-02
1.589190078197682751e-02,2.142520263513529935e-02,4.719993533830781768e-02
9.797843312838313775e-05,-1.045355674653777739e-01,-1.152143704027328019e-02
-7.100343508578256177e-03,2.452541538206315375e-02,-5.439066280129075531e-02
-1.307952594319408170e-03,1.708763959991027245e-02,-6.212717302651103723e-02
2.084195107117587514e-02,-1.669619949594964778e-02,-4.682184620138252207e-02
-7.750888099525224915e-03,3.532084177706659722e-02,4.533495849853973886e-02
2.398418491553853862e-03,2.233248770509647235e-02,8.609547100947467779e-02
-6.536662094515572827e-03,-5.115941298752056665e-02,-3.977552721076882403e-02
-2.155354219801276089e-02,-2.873993956646190250e-03,1.523228381597706814e-02
-2.410749910819752137e-02,3.911229373015492200e-02,7.317697103926150415e-02
4.988274342744069417e-02,3.554991756876743625e-02,-1.427390841667040920e-03
4.266496256845760116e-02,-1.701679627577042456e-02,-4.582205065558889179e-02
-5.416243316235988536e-02,-4.384910460504246044e-02,-3.037506000665514058e-02
8.180628201466184565e-03,-1.425404311751502125e-02,1.079514549444582708e-02
6.544533894433744725e-02,-2.117175487772451556e-02,-8.965461020801578085e-02
-2.961255000262212264e-02,-3.407257060294721640e-02,6.730867361035491880e-02
-1.461450538591257085e-02,-2.717669561808266389e-03,-3.508493426334533677e-02
3.399036541195551986e-02,7.703287228023166823e-03,-1.094740170579310739e-03
-2.336865947806675975e-02,-1.234615037290296737e-02,-2.080544046194279101e-02
-4.108012503635648932e-02,-1.734430238667866025e-02,7.181793433601725563e-02
-8.016677125900859013e-02,-4.326164046783827211e-02,2.502636325612762891e-02
1.219151655069195331e-02,1.054072002580764243e-02,5.295216592940859418e-02
1.586552927675871638e-02,-2.786425015862746915e-04,1.703786481728274127e-02
-3.677821468616244288e-02,3.332770987587774236e-02,-4.643640246412478884e-02
-3.661205789840567965e-02,-8.661872026119546431e-02,-7.112571341576638326e-03
-3.233797452752268375e-02,-1.675618090975805261e-02,2.031922515223752793e-03
-2.737993027229056880e-02,3.519122261605547863e-02,2.870059696952861200e-02
-4.872386076867228633e-02,-1.073412879958222932e-02,6.316440945708963603e-04
5.381786946550472239e-02,-1.664732229047077849e-02,3.351590949726679369e-02
3.483375515571122960e-02,-2.990359395515381630e-02,-2.087687560256387340e-02
-4.316150574741659668e-02,-3.305263915461337243e-02,-2.832737438964505125e-02
-2.045254863993883204e-02,-1.432537834769148557e-03,5.166989075435213935e-02
-4.142257830476202968e-02,3.476117189734714841e-02,-7.084002145446588634e-03
3.059383843791333227e-02,1.032647868670862230e-02,-7.250471342825332661e-04
-1.089933632945926274e-02,-4.949567225697278083e-02,-1.488686925728742970e-02
1.179601936804974306e-02,1.412769737655946226e-02,-5.129632609636963769e-02
-5.391554419181491392e-02,-4.738780680285103325e-02,3.722712637475286516e-03
1.243876896091505695e-02,-8.559872437785252114e-03,1.566688580943217945e-02
4.534567150176203182e-02,3.727111017294025552e-02,-1.000080428575277625e-01
-5.812904843603566851e-02,-5.565717070795295207e-02,7.987718538109814942e-03
-5.345676874514947163e-03,3.059716514867856160e-02,-2.416549256214140309e-02
1.485080095722584974e-02,3.093509595187721173e-02,2.569457998547970690e-02
4.222885112208358410e-02,4.161590743753813132e-02,6.872957085961085844e-02
-6.366484205173782163e-02,-8.617085842081892086e-03,-3.316858523117207497e-02
2.910957522811218751e-02,2.343649552312246712e-02,5.240955712291174573e-02
-2.670665452842698254e-02,1.225505936156689839e-02,-3.608626205342210097e-02
4.076957867595078916e-02,3.319810421029390640e-02,-2.584988164445791575e-02
-5.429831409355817887e-03,-3.959257739084069694e-02,-7.630990834650287942e-03
1.033671123828922185e-02,1.536623250984388853e-03,-1.082952816818819747e-02
2.599689357261839376e-02,-2.102479247803937940e-03,-3.290862896331549214e-02
-2.515383045340344528e-02,2.686002739105167528e-02,5.242850677756612926e-02
5.708531546433223691e-02,-2.255430693682694901e-02,-5.492947930064104051e-04
-3.833370422312026848e-02,2.348233139336551589e-02,-1.359325716182776915e-03
-3.045735242331151782e-02,-4.864583285373210580e-02,1.715544048023500551e-02
-7.291768988069771522e-03,6.983933204318905873e-03,-3.192157307479043249e-02
-4.535318392548100958e-02,1.964784791198946265e-02,1.080754459661803502e-02
-1.420608646830373925e-02,9.644448815245825618e-03,7.105614459966999585e-02
-2.607593993785342276e-02,1.948786119915809495e-02,-6.890240094986309349e-03
-1.494076348162954974e-02,-7.270318212485675220e-05,-1.946369066966770200e-02
-2.679394498260461235e-02,-1.844353532570670363e-04,1.661574314966943189e-02
-4.511154875568187256e-02,-7.781109688071372044e-03,-4.237214603794445950e-02
3.158450859078027612e-02,3.574411110805664205e-02,-5.903663672161207909e-02
-1.652621207924959146e-02,-1.510310901612542563e-02,1.392362049052362633e-02
-6.458400998702548690e-02,2.722381308659413413e-02,-9.945958917742889899e-03
-2.337946264265009996e-02,-3.215029675183800340e-02,3.028653153397134826e-02
-7.398042796326399773e-02,2.725544406424279531e-02,-2.873520025020432495e-02
4.035118656853840802e-02,-3.653538053525648421e-02,-2.919172796267928069e-02
-2.979745613732269482e-02,2.898689724239944185e-02,9.040127960802868054e-03
-1.567763844706285617e-02,-8.154206555634316983e-03,-9.290558627845927134e-03
7.730873168390933747e-02,1.463990660572263465e-02,2.718890482571529460e-02
1.396976300614683180e-03,6.500393711623286830e-02,-1.701793842417997612e-03
1.441452056084513607e-02,2.841424720447989147e-02,5.538179416929881610e-02
6.046744582624984446e-03,6.653568708403256871e-02,-1.479323350225226867e-02
-2.877247696431385095e-03,5.199323509435686830e-02,6.164510188072460165e-03
-1.447106872647795257e-02,-1.209330130767759595e-02,-1.574949194452541015e-02
4.586181934477868982e-02,2.080450645539902790e-02,3.434237902829553185e-02
3.473733542583475747e-02,-1.675672021719176036e-02,1.779726704524006720e-02
-2.131436238915967313e-03,-3.244407313594695891e-02,-7.454374591269301298e-02
-1.106150525907879413e-02,-3.625204539265181915e-03,1.571908814925448983e-02
-1.225612295204592380e-03,3.931700200097196923e-02,2.821456838689375204e-02
2.827308684160611402e-02,6.664254255100156288e-02,1.995004241320636265e-02
4.638106630287490081e-03,-3.334261301010278677e-02,1.818529155638583120e-03
-2.269621928245045550e-02,-7.691637595632314084e-02,-1.341906714537175610e-02
2.195033458882347105e-02,1.614236036044780498e-02,-2.147804589137884343e-02
-8.530914649916582215e-02,-4.978586753021129602e-02,4.775132660930859335e-02
1.800372130603514892e-02,8.846238067918442763e-03,-3.101652213819867596e-02
2.527967406211341708e-02,3.756102938323400281e-02,8.239972780882784398e-02
-7.329531408906047284e-03,4.436506654345182682e-02,8.882980734050591534e-03
-7.209913948316060139e-02,7.063337049311205207e-02,5.224155723044383338e-03
-9.685230986300133113e-03,1.329715523629182092e-02,2.015086987576784547e-02
-3.090606533931000016e-02,-6.898359325619404792e-02,-1.772682267512921614e-02
2.787456452288808798e-02,1.870254127867771246e-02,3.051495799501450362e-02
4.334491944084389869e-02,-1.857498211194008944e-02,-4.201530523665952810e-02
3.565189036278403750e-02,1.369785725613903785e-02,-2.459452805977890844e-02
-2.556286769020856692e-02,-1.944598793448257951e-02,-2.877416843382428480e-02
4.918894821702273629e-02,-1.873813671166191241e-02,1.374884143982218337e-02
-4.146148716983569932e-02,-2.662785887787832637e-02,-1.863139952377017294e-02
4.261468650981772160e-02,4.571859338292452377e-03,-1.630723736151171860e-02
-7.116993401240482089e-03,3.336290568086289275e-04,5.414450316804746838e-02
1.772336875416620147e-02,-4.104281184896090180e-03,-1.994869587718564596e-02
2.266264902690657071e-02,2.613181246122085397e-02,-1.383705004386825109e-02
2.324861075643231551e-02,-3.984485184032077187e-02,1.614456344351521133e-02
4.101753839643289268e-02,-2.511792622949454712e-02,1.527922877443699647e-03
2.602188896397189619e-03,-2.774729603496898026e-02,2.201725295150900805e-02
2.984898076182633270e-03,3.989027584671939880e-02,-2.804002636366567658e-02
-1.360856164446829115e-02,-2.369727476757510064e-03,5.962103339335329127e-02
-9.503693716185313001e-02,-1.965981470051810301e-02,4.579515096708003385e-02
4.980565064068665643e-02,-3.867633209958681179e-02,8.574017140526797630e-04
-2.273011554130117962e-02,3.702514405889491267e-02,-4.138682432764576036e-02
3.452969272874934631e-02,8.428115136895878226e-03,-4.885069380734250247e-03
-6.901857712256404855e-03,-7.559019371929349973e-02,-4.443862071858671603e-02
-4.312565112148913915e-02,6.033601711966350700e-02,7.683380992094961115e-02
1.164190604861941279e-02,5.974118359193474059e-02,2.270974420930426535e-02
-5.063623169235528798e-02,3.162161114495908032e-02,-3.179090854378687631e-02
6.385580099624932338e-02,3.477572361761561287e-02,-3.125980918063032965e-02
-7.227880991994718035e-03,9.154791842239724808e-02,-7.750303829462100620e-03
2.574950511543808856e-02,2.856473877465592198e-02,4.242713541585350218e-02
-1.803290488512234585e-02,7.295896323559412401e-03,-1.965828090281356022e-02
2.157831762518265528e-02,-2.906992702803857728e-02,-6.353704239263455178e-02
-2.579848055559547104e-02,5.312717488735201055e-02,-6.674173534145394840e-03
6.699021469320284340e-03,1.272477684796544713e-03,1.733156729759385839e-02
-2.340098868487724276e-02,-2.807289092972794012e-02,2.782564668636745842e-02
-9.188498178519506274e-03,-2.876096567249707137e-02,1.878324535962539593e-02
3.201896995894068509e-02,7.479455129981651962e-02,4.779414236278038859e-03
-3.471572034119097677e-02,8.476099348997028285e-03,2.669401676173669205e-02
-4.601370146284299717e-02,4.644197504016907285e-02,-3.058931990144947433e-02
5.120469509847054568e-02,-9.240751375343745841e-03,2.630880597267237081e-02
-1.511546704500253821e-03,-2.242077839013561363e-02,1.422287780088259297e-02
1.213104943879101880e-02,-1.875270701623453148e-02,-1.766020224759096841e-02
-4.182056269101062929e-02,3.716210092872669624e-02,4.374083474122734960e-02
-6.809573683889764972e-02,-2.310886525125824612e-02,-1.583879253534525855e-02
9.634997757448601416e-03,2.491909344751609343e-02,1.220046596564502463e-02
6.107446724452588079e-03,4.694384459683255233e-03,-1.214520194311375333e-02
4.465209731640075452e-02,-4.126421284913221049e-02,1.632332405691764047e-03
-3.023189991524173614e-02,-2.787616856422665476e-02,1.818068909322223536e-02
1.659816841950234600e-02,-1.153841664818059526e-02,-1.096301299743704383e-02
-2.342529979825973621e-02,3.575209252419554035e-02,-5.639602741449319112e-03
2.810906257638576614e-02,-2.630125573941412623e-02,-2.776202281372991409e-02
3.691241704823501613e-02,2.496756666089645221e-02,-7.909520622455398775e-02
-1.062315215054493271e-02,-7.055681943703228688e-03,5.773758991994769330e-02
-3.786618907894531011e-02,-2.166867224205012293e-02,-2.410563026595408803e-02
4.304218258613162415e-03,-3.293348741820899955e-02,4.194200021399386441e-02
-8.597595248267629608e-02,3.145433493016485272e-03,2.650458451702254747e-02
-6.554733949486289679e-02,-3.353355579468607350e-03,-1.494744080168416110e-02
-2.351721853684571664e-02,7.919843068006323858e-03,-3.410305871536794403e-02
-4.135183174781008331e-02,3.479064262953632941e-02,4.966044233648400641e-02
4.157366207222746440e-02,7.665040405581289608e-03,2.735320697050556624e-02
4.120343946666919777e-02,3.461642475608464609e-02,-5.493078884371092874e-02
-5.098979641181579370e-02,3.179222090441870957e-02,2.162935326751008053e-02
-2.921910875277189813e-04,2.371971858651777607e-02,5.494854760204320038e-03
-3.177034341630357271e-03,2.408851298698067034e-04,-5.071434342658208416e-02
4.394736784635288468e-02,2.942229567145487890e-02,-9.255966514045133736e-03
-2.845731652298883266e-02,-9.524827795571923911e-03,-6.520373952136557238e-02
4.246081483546319812e-02,-1.904864362230533972e-02,-5.881016443307667679e-03
-1.019774769932464409e-01,-1.047857562237199461e-02,-3.641818250718045075e-02
1.355658443492641432e-02,-3.979099174950458118e-02,-1.963180718181814499e-02
2.792812059478528078e-02,-3.677736834538915256e-02,1.387586030646944558e-02
9.621704383736136637e-03,3.405069402118340166e-02,2.422368886002009350e-02
-4.306568379823432630e-02,-1.938753105795939374e-02,9.010126486284198268e-04
4.294770079065972357e-02,3.622911134329012683e-02,-4.604711199812284300e-02
-6.382213081998810988e-02,-1.690321742727786403e-02,2.381394980724739485e-02
8.427349573011318207e-02,-1.442160880519059545e-02,-4.055403005424568219e-02
-7.521944358898091654e-02,-2.039652260367213685e-02,-9.137639802697375066e-03
-7.397965961301787574e-02,1.443574133795384219e-02,1.252043107053706084e-01
-2.054820258270474709e-02,-2.364961563307456383e-02,2.177934011818998331e-03
-7.564759140465912232e-03,1.902271337852201247e-02,-2.332221973615536403e-02
-1.370212523841742025e-02,-2.574825725341698193e-02,1.246355497681562660e-02
-4.423768026040397067e-02,9.020290727849359161e-03,2.294893421218272694e-02
3.826659675422716678e-02,5.490606480966316039e-02,1.855930077376250278e-02
-1.627574319093837195e-03,3.135013305788922344e-02,2.640913315632793801e-02
-3.145958318540997140e-02,-1.061540846495711600e-02,3.300839109256150533e-04
-3.144411786807844306e-02,-5.339211191772866641e-03,1.485637312204641548e-02
6.107487327660105630e-02,5.631119010168306703e-03,-3.194003296167598205e-02
-3.871903216924692942e-02,-4.866074502014505754e-02,-7.367427670590761916e-03
5.009533029474792787e-02,1.158986576063989610e-02,-7.634126625367786134e-02
-1.136394341127133605e-02,-1.473300580113753692e-02,-6.553305835566815285e-02
-1.661348794834464210e-02,-4.974808347649579271e-02,-5.252391038658498629e-02
2.649885034550564233e-02,4.869220925061764661e-03,-6.177242871641900474e-03
5.289286147906915869e-02,3.424109713666750182e-02,-5.750255873218896446e-02
-3.160802307793111887e-02,4.885355777935238009e-02,4.700292856847379519e-02
1.667012292933460482e-02,-4.702498881969447569e-02,2.704651068778375286e-02
2.904760768829986461e-02,4.993083168146831424e-02,-1.615233910402102957e-02
7.000794955821855979e-03,-1.084225084515688317e-02,5.088856265268812407e-02
2.471189484001670364e-02,-6.174820071552226085e-03,-1.567997203572070453e-02
3.628674220194925970e-02,-3.180251296177336734e-02,-1.332410623959734810e-03
-1.246934436239282608e-02,-1.663854155837319812e-02,-5.472620481576547652e-02
2.695228609010188667e-02,-3.440419826202677916e-02,-3.729235669965934308e-02
7.604390726092950803e-02,-4.134494923507880254e-02,-2.852199770426765493e-02
1.617215235343140781e-02,-4.835416032925745483e-02,-4.993808402283726917e-03
2.812232768147706480e-02,-2.494596236742807269e-02,1.676483676630711322e-02
9.733750561932487735e-03,2.360813533243082477e-02,-1.129928800645876863e-01
-3.094977672920800824e-02,7.797975824134946443e-03,-1.977755657662918012e-02
-3.780405194634199606e-02,2.622642783232055283e-03,1.282777472410607904e-02
-7.167737940723015524e-03,1.474933954110624855e-02,-5.156971562365367939e-02
6.331498370699835399e-02,-5.334459883993881296e-02,3.868613583298320668e-02
-1.469767146646622398e-02,1.901998811703054654e-02,-2.882711455713245566e-02
-5.909849907838810729e-02,3.920296672065524089e-03,-4.551879838491185160e-02
5.486176679274300250e-02,1.001962735542691330e-03,-7.668972282537822593e-02
-1.566535724587111988e-02,5.425257427171348290e-02,3.322147406983485401e-02
-5.644781845063207536e-03,3.454951468951982657e-02,-1.014369618093641755e-02
-3.318251573061168497e-02,3.063052663414756252e-02,-8.546777699787908369e-03
3.843053580601581923e-03,-5.129826898183086070e-02,-2.260100149780895282e-02
-3.014697363216955420e-03,2.718703032470995082e-02,-2.466218877025978459e-02
1.471197289686320981e-03,7.414956624475591571e-04,5.492292965466737120e-03
3.462555621577807080e-02,-3.086885361686033530e-02,-2.168690295338631877e-02
4.325305753312572166e-02,-9.106980924860539478e-03,2.584812507195858450e-02
-2.034593935434077933e-02,8.152908251481488788e-03,-1.148516121794627455e-02
-9.540139088987759433e-03,-2.680423870755949123e-02,3.063368933485863602e-02
-2.532713800179711358e-02,-3.268150231639890824e-02,2.028272390165076003e-02
-2.934571397034196893e-02,4.738852031950393368e-02,2.179360997783593573e-03
-3.294666790585835947e-02,7.374120037864581763e-03,-3.969186965450053652e-03
-7.436525229410686014e-03,4.112722324379024241e-02,-5.169924887768755084e-02
-7.155255239020658076e-02,-3.404848220595463326e-02,-5.879696910209895877e-02
4.950578148961459757e-02,4.105744262181637225e-03,3.423345156128222017e-02
-3.079172362567878657e-02,1.599204456947718456e-02,3.024254411009464488e-02
-4.440783232523113494e-02,-4.580401876175451206e-03,-3.382843048203451174e-03
-1.967934742336337889e-02,-3.610812135200619933e-03,-4.336832527163535927e-02
-3.263348768832029234e-02,-3.455173859217514770e-02,-6.908740925001387312e-02
1.517304960998190622e-02,-9.017651402941009994e-04,-5.723923136910795753e-03
-5.081274841949441623e-02,3.403874295330463085e-03,3.502390270053561822e-02
-2.274246132691467442e-02,-5.152107717253797542e-02,4.501463737276594629e-03
1.685853671220598204e-02,-2.531366618269599231e-02,-2.979996879504215324e-02
4.964236726668442429e-02,6.727191592068892945e-02,-6.143954738036850466e-02
2.438745368296334204e-02,-2.757681651160394029e-02,5.245638235289849793e-02
-2.644275498330414531e-02,9.274601780928185338e-03,1.265100622481850172e-02
-2.633788642209713635e-02,-1.603445358160794643e-02,4.121802597633347776e-02
-2.040269128475808574e-02,1.563175794452381986e-02,5.330279220382364708e-02
-4.123961648341736147e-02,-6.283392614437202650e-02,-2.909537016998955949e-02
1.317471120986786134e-02,-8.379336928594723066e-03,-6.008254859947483734e-02
2.186879224423752752e-02,1.782623886875710564e-02,-5.929466308491930515e-02
1.751490317418719772e-02,5.148021550323582385e-02,-2.621874776976373944e-02
6.566294333386976656e-02,2.170565968936194468e-02,-4.741365436795664384e-02
1.449467205507330367e-02,8.780478198614400515e-03,2.773119044448597512e-02
1.663296210977276146e-02,3.723753029652221436e-02,-1.565588563063471939e-02
-1.805761316408678596e-02,-2.739270633421030804e-02,2.710377269519356758e-02
-6.090713492228003872e-02,3.920943452908273036e-02,-6.127922460803380753e-03
-3.651501850893499462e-02,1.140023632924469510e-02,-3.051426989062246912e-03
-4.624902930658345707e-02,3.312436282550584171e-02,-7.101539896399305940e-03
-7.164800641400080432e-03,3.322358058644790928e-03,2.979698566988968692e-02
-3.981141974880428314e-02,1.096869964608490622e-01,1.771430051832556529e-03
-1.633743453160664202e-02,5.856897576022495472e-02,-2.012359073600488227e-02
-2.808291585336286297e-02,1.407031165593285345e-02,5.258003247199298166e-03
-4.414309315553405916e-02,2.260492010607281083e-02,2.850673500962720361e-02
-1.317833638812187722e-02,1.300482616143941450e-02,1.842802078437294142e-02
-1.778946399865095245e-03,-9.378252709089219749e-03,3.496903985949188776e-02
-2.037254235553951839e-02,4.499265168965616707e-02,-3.347058371118884212e-02
-1.919335416083036913e-02,2.155992362414433511e-02,1.332855002984677413e-02
6.871881322793682665e-04,-2.694353581177370144e-02,-1.064886907091316254e-02
-2.855519403342808918e-02,-6.761692211588297974e-02,-1.998197967567749700e-02
1.491992340422674222e-02,-3.884160621856028173e-02,2.067099770928574470e-02
-5.845412611540812958e-02,-4.701809588263407974e-02,2.301099063129996569e-02
4.500799007150835577e-04,-1.191700470783967113e-03,2.138876175206641354e-03
-4.816459462734890701e-02,-1.223006300784905583e-02,4.485532617322892518e-02
-1.197753909928330092e-02,3.018426960112752938e-02,9.630161948824935217e-03
-3.238580392441132300e-02,-7.281591640821581148e-03,-3.301423038847935837e-02
2.032227112847582312e-02,9.822681367287608087e-03,3.932824043566451877e-02
1.431083717227567449e-02,2.498010658253660074e-02,1.894664173659954748e-04
-1.823591731056326340e-02,-2.656162106045094687e-02,-2.791786965420622012e-03
-2.735670513191229558e-02,-4.826149247203352687e-04,3.460375166675446791e-04
6.905639028708637772e-02,-2.973118388450094601e-02,7.183244756151795779e-03
-1.155248296224649016e-02,5.639632202269654476e-02,9.002750345590948555e-03
-5.984054387241866113e-02,-2.802110945038860726e-02,-1.014600000801355387e-02
6.577266751318955329e-02,3.130636282556670258e-02,-1.358531174426412177e-02
-1.730767560647085770e-02,1.137950949112164802e-02,-8.701794634689227065e-03
-5.489447321893312082e-02,2.229047775180202293e-02,5.257983149517322236e-02
-1.725145871303699480e-02,-1.030582589984628712e-02,5.934815535035288525e-02
1.333393403171526971e-02,1.296824669245987514e-02,1.910972141631847587e-02
-1.894674746189833545e-02,7.521763234387199293e-02,1.710625043242762575e-03
-4.997052224153537836e-02,3.205342178771613398e-02,5.122567495998062853e-02
-1.952361559570396990e-02,1.656591978947793975e-02,-1.151187764052260219e-02
-8.546123960434766353e-02,2.298084947163368461e-02,1.602085534636926017e-02
-7.689599975606284214e-03,-2.734174466483801913e-02,1.497555101022437531e-02
-4.713189443527573269e-02,-6.216195267110938283e-02,-2.690162185625946320e-02
1.298161052346284011e-02,5.084947215031845880e-02,4.618730210503980277e-02
-3.040538906000074537e-02,2.355929603934717176e-02,-9.591458532512378565e-03
7.024489781945616844e-03,1.168379201915516891e-02,-3.608564500498379762e-02
-2.516431541373057718e-02,3.255943230301143465e-02,1.086146346816201699e-03
-6.239733396314954550e-02,6.258233428297983736e-02,3.093836681597603427e-03
2.285325576030346889e-02,2.074203133837436777e-02,4.539260988076446873e-02
-5.983915580372133058e-02,-2.166381711511588051e-02,-9.837196919986745947e-03
2.315423158388632010e-04,-2.562265455250220883e-02,1.379835966874299810e-02
-2.818329491271664641e-02,-1.478590162664625979e-02,3.124870174361440642e-02
2.374925256885713348e-02,-2.436492607315412021e-02,-2.017465077749064015e-02
-6.100413918206229469e-02,3.654929728602352573e-02,-4.508853795624541416e-02
-2.409347007674234042e-02,-1.826684699303313120e-02,-1.677597129740881349e-02
1.132491513254492779e-02,5.670634322603653604e-02,1.395987353206614920e-02
-3.101812300129616964e-02,2.079129777834419490e-02,3.160408390561601777e-02
-7.442496572447655952e-03,-2.254169397704530731e-02,2.296021844269928100e-02
6.969856265086557708e-03,4.602409934175834966e-02,2.378297836413681508e-03
1.921062983774327537e-04,-2.507820375157183979e-02,-4.071732063755132899e-03
-6.012788599797286304e-02,6.147671651688343952e-02,3.577454741828586110e-02
-7.191712191532481126e-03,2.932966593888025608e-02,5.134824403531857567e-02
6.298493040256561426e-02,5.463051731586117399e-02,-4.204778483659817045e-02
4.251218718792654228e-02,3.079957965871193276e-02,3.215302430485502544e-02
6.130976930543725195e-02,1.612808598261117679e-02,3.957467204898886676e-02
4.693455340407722692e-02,1.056168205854686806e-02,-3.324253108992634900e-03
6.129032513025675297e-03,-3.256411128780241360e-02,4.583764813502014257e-02
3.044235181036824417e-02,-1.136546847781420150e-02,-4.042192352447640524e-02
1.052426337491575714e-02,8.509107600057033705e-03,-2.392994842124205115e-02
-1.670696076067557101e-02,3.635857832163605363e-02,-7.978134384988640193e-02
-4.184007870456474265e-03,-5.205726032367945233e-02,6.699976556543244498e-03
-2.084132000685836109e-02,2.006766835172093394e-02,7.524407700690152051e-03
-2.162366643550451759e-02,-9.840232674537599793e-04,-5.060347426680267269e-02
3.669128078198964638e-02,-3.554399381515177536e-02,-3.605036185007244598e-02
6.704949315727157244e-02,4.097277085067746460e-02,3.809990096698359641e-02
-4.327380641255149096e-02,-2.899855669790901008e-02,6.269166995528972254e-03
-2.984150130301728779e-02,-5.792699543777243137e-02,4.976495164582424302e-02
-8.742632924803420136e-02,-1.934681623972638043e-03,2.400449970755635931e-02
-9.719117377337608416e-03,-4.856308467782100707e-02,2.437660895939162270e-02
-7.644598453880586952e-02,-4.554091060842513361e-02,1.801156610246869684e-03
2.594115942075117531e-02,-4.402065970592715718e-03,1.001188383082752403e-02
-2.342992225569651144e-02,-7.103916241837439881e-03,7.104766059092029219e-03
-1.491296416891920405e-02,4.142027327073514315e-02,2.633566882598692427e-02
-5.530188403580689471e-02,3.255096646215063089e-02,6.523136045151631257e-03
-1.809228952955042186e-02,-4.355579907009066165e-02,3.670617180116338141e-02
1.017216795665624868e-01,5.641282528784714867e-02,-2.175587903473003015e-02
1.025180150934765048e-02,7.457921834788759641e-02,-4.776328592408734391e-02
-1.835569181942692599e-02,-3.822705040048894609e-02,-2.033832303136399317e-02
-2.384101022661031313e-02,-1.559635508597464505e-02,-5.128541368296264669e-02
1.943207538154272454e-02,-9.407826017399017332e-03,4.818512952491386947e-02
1.376310653948901834e-02,-4.535352039333002960e-02,-2.805843158719498187e-02
2.599642297528515292e-02,-4.372810454520262985e-02,-3.128848654440537225e-02
-3.004402992552166266e-02,-3.591289614020802545e-02,-3.164319919136761999e-02
1.177268536607013055e-02,5.266363107478597844e-02,2.307898693399147716e-02
-3.152591623211070671e-02,-2.236917983181702443e-02,4.405272319698755323e-03
-7.637429057772196495e-02,-5.665994736312096602e-02,-4.600283251579857097e-02
2.968872862397615997e-02,-7.720572065979142487e-03,1.245019689501302047e-02
-3.062187188170402419e-02,-8.479307390984978932e-03,3.186068633457041915e-02
-7.050433001844615133e-02,-2.525282437570943936e-02,-1.596126526260505801e-02
8.170931033681039929e-03,-1.396901235757740389e-01,-2.605741363202384794e-02
3.008244898185964689e-02,-2.342867834799614718e-02,1.403905856093606852e-02
-5.431723062247752198e-02,8.089572454044846594e-03,-3.168389039387373846e-02
3.528708285480642790e-03,-1.186302738968234710e-02,2.687542403447373135e-02
2.071930334941959190e-02,-2.400902174014204679e-02,3.058172653139890410e-02
1.496044939167799626e-02,4.093996602987324922e-03,8.163617521417915537e-03
-2.242238503223750387e-02,8.044428342087726891e-02,5.406390070951480435e-03
2.652229819942612463e-02,3.882252525353363515e-02,-1.577664899755611139e-02
-3.037370190105825526e-02,2.078419944505630751e-02,-3.086027807376128668e-02
-1.655360418906475992e-02,2.741963300073644791e-02,1.308270004211151138e-02
4.575160527452165615e-02,-1.909373158786945718e-02,-9.310354628475686276e-04
4.920631304706785114e-02,3.394292638145243735e-02,-8.009495407153979091e-03
2.684730833351690188e-02,-2.174418000378094268e-02,4.079153154775576654e-04
2.850051576682080274e-03,2.016570839583433847e-02,-1.793101945348724935e-03
-3.279806817547645942e-02,4.214542475434587820e-02,5.881917729655587214e-03
-2.663134573278939932e-02,-5.171891925546167473e-02,-1.104742963961071744e-01
-2.403091796374623446e-02,2.886649536241047906e-02,3.230413898097649061e-02
-4.285536395062704285e-02,-8.331306573897858184e-03,1.235140529978473803e-02
1.318862243247852055e-02,1.127345464419450896e-02,-1.195844994332248903e-02
1.123440356071379875e-02,-2.528219669238560788e-03,-2.016453409959497595e-02
-1.619106796503163442e-02,-1.653135048227267340e-02,-7.453927846857866767e-03
-5.373910899047151801e-02,-2.002057040357027584e-02,8.448911386885735175e-02
-2.696603830342955959e-03,-9.396650343980848807e-02,2.497041508026781598e-02
-3.927778754044470438e-02,1.104262552634691216e-03,-1.215522765056293794e-02
2.261610483573111424e-02,-8.580926676666629505e-02,-1.330592023414077334e-02
2.159095367773257446e-02,2.017029890154661831e-02,-3.803702418485128967e-02
-3.734299780143372771e-02,7.040738877214665348e-02,2.106534719356770169e-02
2.474814102736607596e-02,-1.669631810942202171e-02,4.150244693209356045e-02
6.334897179415821533e-03,4.532200891124690649e-03,2.545568729464032023e-02
-2.525080492825501621e-03,1.717847352395369259e-02,3.522688390829992883e-02
6.116836202726459726e-02,3.437268831092660237e-02,-3.281256781851404208e-02
6.650973500567390617e-03,-2.458256700914704385e-02,3.750345556748738846e-02
-1.771631059474002012e-02,-2.314240233980913511e-02,-1.085532670788157301e-02
-8.154574153432184169e-02,2.011852397962222289e-02,-2.531354298324059882e-03
-1.411829774448090762e-02,-1.243014531108136388e-03,7.826726688378909946e-02
-7.570105539162893735e-03,2.384008739773792532e-02,-4.607430606132118661e-02
8.618385886210040356e-03,5.692955328579930863e-02,-3.334395156216267420e-02
-1.090703111630461283e-02,4.966459910093159319e-02,-5.905873522488258240e-03
-1.972083931482047567e-02,1.663784185088092171e-02,2.561770871846672307e-02
-3.378140444048241542e-02,6.011215822906358641e-02,7.569425117172308426e-02
-3.173569628742356572e-03,6.067112119639824636e-02,2.011145641891698855e-03
-4.612380057591753540e-03,-1.073645748958226495e-02,3.090663364325686377e-02
5.063457825044982361e-03,-3.311538085950765237e-02,4.719361689457440140e-02
1.667859999776515750e-02,-2.508010283709168758e-02,4.258985508829443017e-02
-1.877891847657937874e-02,2.309153519851363939e-02,-5.643438831730874898e-03
-4.571472465004935287e-02,-2.373482662025399800e-02,8.413908647076256964e-02
-2.346336629251317800e-03,2.167935044863827931e-02,2.067391327699688586e-02
1.906588823626057666e-02,-4.181338046766549556e-04,5.589846413911683451e-03
4.748850824202859033e-02,-2.778669919898844529e-02,3.147910964509460785e-02
4.846179269564458020e-02,-2.153590239805167755e-02,-4.418294537369044789e-02
-1.945212995796993458e-02,7.813041643436101011e-03,-5.427023653026168820e-02
-2.120583125065938004e-02,-5.201363062657358288e-02,1.423098788314742721e-02
-6.041906041505494887e-03,-5.888871310616497490e-02,-3.167445475501263347e-02
-3.821214964136333131e-02,1.188874432176062305e-02,-1.334841310549463554e-02
-4.944618366485551558e-02,1.108047299707213412e-02,-1.401527418243216777e-02
8.241505479459960981e-03,8.446230220648812126e-02,5.582727268159131534e-02
2.043515358206004356e-02,6.580848988397240175e-03,6.139334793830114601e-02
-1.093633919947387687e-04,-4.618860663250151655e-03,3.920063748250896679e-02
9.631374290524317983e-02,2.856059029043712515e-03,1.173323348355334236e-02
2.471546453823545222e-02,-1.271628354250442343e-02,-1.288918050838534606e-02
-1.227297005425454987e-02,-3.876029825298574899e-02,-2.447303971551255744e-02
4.909900768671904281e-02,1.111166646784376988e-02,-2.462277631099517305e-02
-3.815471258138969368e-02,-4.387586251795692546e-03,1.246742796588470653e-03
-4.058148699880916727e-02,-3.875698023759444749e-02,4.136246146574020649e-02
-3.879120724157641975e-02,1.584792040118746664e-02,-2.982276144605938012e-02
-2.258633204120000931e-02,-2.894381124764171254e-02,3.010507054513188521e-02
-3.531813019902126094e-02,-1.815163759104910374e-02,3.955773497308903014e-02
-1.525503398851774280e-02,-5.067903245477044238e-02,2.103099833247695435e-02
-5.433672850397431447e-02,-1.554076103549728409e-02,-2.330711560216553596e-02
3.701990929765059529e-02,-2.931056616616824206e-02,-2.204126018868677282e-03
2.956338646845810270e-02,-3.403025600383035448e-02,-8.389605961093464515e-02
6.524102381561502385e-03,1.575669472689216963e-02,-1.779032190154651583e-02
1.645669671044321797e-02,-3.341195811263898696e-02,5.497758426498967899e-02
4.170011762503215286e-02,2.224632034637435626e-02,-1.914459968633665243e-02
-3.543594870649526690e-02,-2.394112263260253851e-02,8.714653819971768592e-03
2.754167572570946285e-02,5.447326359585868971e-02,4.249598029473453803e-02
2.302979244827627406e-02,-2.152391662413507059e-02,3.545099496914055209e-02
-4.009444440823448086e-02,-2.034284318580094515e-03,-2.431607666146818822e-02
1.875620851952182130e-02,-1.417376061540633926e-02,4.931849028515475873e-03
8.014493015032962686e-02,-6.744670004113129114e-02,2.036419124897673877e-02
-2.854185530630859446e-02,-8.808871978436098871e-03,2.857393462544922935e-02
-2.208273103212784333e-02,9.861062708507631336e-03,1.304726822206517256e-02
1.538036735614827302e-02,1.928134408256370821e-02,-3.810877843195513426e-02
-6.684435191648816464e-03,1.378881362158131813e-03,4.881618477485884927e-02
7.737416098636859529e-02,6.749745830220905615e-03,6.234440166567457170e-02
-4.618134443705255998e-03,6.589389834744570525e-03,2.560758889651171960e-02
8.839188334524789373e-03,6.966092613222340212e-03,-4.835509577258375637e-03
-3.549226872977940747e-03,3.736406542000111908e-02,-1.260646924037972343e-02
-5.137068608969857370e-02,5.007697121631678877e-02,3.571833916604505790e-03
-3.412189037725815721e-02,-3.498648344160185802e-02,-1.557322395760727231e-03
9.096836137148046897e-03,-1.696319613836605109e-02,4.689655906548424735e-02
6.292248998951119159e-03,3.633225911157311749e-02,-6.323367261061022503e-03
3.282765254221972455e-04,-1.476187663677511891e-02,-4.753126111462032538e-02
-2.877302263060935866e-03,1.186792804464079434e-02,-1.003043875107733664e-02
3.621454999790580699e-03,2.884403632782442037e-02,-8.961497682430454720e-03
7.435883065004195158e-02,1.420239999302072217e-02,1.701627203168546570e-02
-3.865039434127976598e-02,-1.005347956191294948e-04,-5.244551130347604312e-02
-5.517067006696589615e-02,6.809384186792866167e-02,-1.944521082230822595e-02
4.699334389121632288e-02,-2.626442261441371342e-02,-2.786885352308690264e-02
-2.529942501539639635e-02,-4.182183843951212641e-03,-4.208499569322257661e-02
2.591077866336302660e-02,5.229118382204181979e-03,5.527553824905029334e-02
6.116433195428747083e-02,-3.065298694991286724e-02,4.706265636032942040e-02
-5.820370501166844540e-02,-8.556986262200946651e-04,-1.287062011347934673e-02
-5.487234792378989368e-02,-1.692999977222564567e-02,1.705387938972208195e-02
-5.519716054393677962e-02,4.557057948009821807e-02,3.056217880520271934e-02
7.299107028729751034e-02,-3.323669043986234028e-02,1.076657897946666775e-01
7.074047852758208639e-03,1.930939801954131493e-02,-1.194971449519651591e-02
-6.563913802970631171e-03,-1.525893350330914319e-02,1.688849986990142993e-02
-1.835030942210353483e-02,1.343131197444195034e-02,-1.968189357313450405e-02
2.401116177718953110e-02,-3.510754719026303039e-02,-8.017004848417467675e-03
-4.758978591357736210e-02,1.778867534699486719e-02,2.485490571592180106e-02
2.544055705219947297e-02,-9.482665960504519168e-03,2.911755836358408990e-03
2.853940968507951217e-02,-6.964743476365538311e-02,1.927436000087757312e-02
6.859913552891028221e-02,-5.158475630274514910e-03,4.982050952480743949e-02
-1.021865865131586218e-03,-1.151204330622187556e-02,-2.149783490518355350e-02
-1.518549907494385828e-02,3.475326344651747529e-02,5.379458377796230220e-03
1.030449600900171930e-01,-1.882738487997052609e-02,4.768191779676950182e-02
-1.791016965956929510e-02,-1.535384481971656737e-02,3.942983281756150260e-02
1.574504530300941188e-02,-7.205966755621444342e-02,-4.204737454758861875e-02
-8.466586804756232043e-03,5.293512617215047344e-02,-2.427232449641955614e-02
-3.451942032387238669e-03,8.013298112644414925e-03,-7.122104901567717812e-03
-1.383707422807560483e-02,1.132048347052929185e-02,-7.972191199285889873e-03
8.874618894085966637e-04,-3.422862952417438098e-02,-1.523978683917941168e-02
-5.554931530092555719e-02,-6.771803921242190716e-02,-2.176168089838027234e-03
-7.319538270529745740e-03,-1.279884549290395083e-03,1.132788036014159908e-02
-2.010967839548813939e-03,-6.002398576047490676e-04,-1.266840778931338680e-02
-5.387716567319293659e-02,2.737391294230970794e-04,2.666752937569447091e-02
-2.485028545347470197e-02,-4.564839985449529493e-03,-4.735431450367335454e-02
-4.276492460953821434e-02,-2.026814720368762604e-02,1.552169849741669855e-02
1.182543119173243805e-02,2.275382895519095349e-03,5.394371166798368061e-02
3.094385102972618991e-03,2.590354561640757433e-02,-2.227804939495544798e-02
3.474399933172158533e-02,-1.215523649398656631e-03,3.463857546473122703e-03
-4.644004023261366632e-02,5.209369803815528527e-02,-6.025496156914414425e-02
5.999269844347269315e-02,-3.393754881154937425e-02,-1.248985508377118032e-02
-8.338047033651425910e-02,2.767704116284300069e-03,-4.190463602303994700e-02
-1.379347178072342500e-02,-2.701935223369725941e-02,-2.881393520199700478e-02
-1.231037199620389593e-02,2.064356764753305998e-02,1.989508737050776563e-02
6.440292808965736304e-02,-1.223191612716967649e-02,-5.874590555524008412e-02
3.091931789744165049e-02,-4.052889225830496461e-02,-2.709245120759254388e-02
-5.298816326790950493e-02,1.569793953411557919e-02,5.283692532427619777e-03
-6.414651804049370520e-02,-5.716436521249788211e-03,3.647779014398198905e-02
1.239154428966639243e-02,-3.176039307724545097e-02,-6.696890728453386288e-02
4.285159609164265748e-02,-1.369732047446213172e-02,2.193291377959915786e-02
-8.299457711528317183e-02,-3.131721287453928786e-03,3.182875130843642458e-02
-1.068680011584573555e-02,-4.109136181633904310e-03,1.032653450900817838e-01
3.192480072120051394e-03,5.093996371262075884e-02,-9.848014589670512492e-03
-1.329320457848995156e-02,-8.193208325323435293e-03,-9.448000428899349865e-03
4.418554346038224695e-02,2.600685234978456634e-02,-3.016568120273194209e-02
1.986987103294383591e-02,3.085909498882125415e-02,-4.339017890074579886e-02
-2.700720839167683462e-02,4.122862735676321652e-03,-3.916289457245274858e-02
4.598778132896715748e-03,6.507514424049252143e-03,1.336187972319567881e-02
3.066402260520464940e-02,7.055044451569583708e-02,2.989525395600893878e-03
-1.731520570993386188e-02,-5.747492295948018748e-02,-6.279816335725335250e-03
-4.600686082357509366e-02,-1.383773670448821061e-02,4.283274006995061584e-02
-5.682977380217944102e-02,2.572161439868902652e-02,1.791841525807207763e-02
-2.692424296387887703e-02,6.654668089628842931e-02,-2.085249159422908685e-02
-6.558506254089015164e-02,-4.576610848358978606e-02,-5.648518787385249651e-02
2.711094435122591434e-02,-5.962935164752860423e-02,-3.165792174743557036e-02
3.996635641479200085e-02,-3.418574389264739805e-02,-6.555957693139788682e-04
-3.145986439049359984e-02,-3.476708728555218814e-02,6.115462349141002028e-03
-8.527818409175484671e-03,-4.284517795056490275e-02,1.351639530190443424e-02
-2.106428546149966691e-02,6.511668641433392482e-03,5.168335290249990305e-02
-4.788403229902242486e-02,-2.113154648472266930e-02,-1.007076314720613784e-02
3.540721467287592794e-02,5.369189480951525734e-02,1.416532612743275424e-02
4.642679567529461176e-02,-4.242098823685478554e-02,2.215967331485374156e-02
7.216503781031620435e-02,4.868001308672909727e-02,4.730080991217443936e-02
-3.765127460165246676e-03,-1.469146715241722440e-02,-6.563176060745633776e-03
7.961734063074215814e-03,5.626192506219237013e-03,2.174290173529414352e-02
4.588487173639756167e-02,8.985107731820828753e-03,2.350019965108027307e-04
-2.541592941927110424e-02,5.791870471699601258e-02,2.361320034961475120e-02
1.100181342014120399e-02,-1.505532567144557236e-02,9.783476161716858632e-02
-1.992214981417966477e-02,-1.893289271309914201e-02,6.076169037102712583e-02
-3.594334760697265319e-02,3.086975641525740305e-02,-1.633080763944963487e-02
3.361749036449501737e-02,2.304409314953535098e-02,-2.084565942872932537e-02
6.967155754884014722e-03,-6.933277233205940859e-02,2.346276822397018805e-02
-4.096516042827551274e-02,-2.006212204331463134e-02,1.259944097886464900e-02
2.372308764726178965e-02,-1.181758767329213339e-01,-6.611445942617687199e-02
3.315884903754583168e-02,-2.793780059833867596e-02,-3.945801067983403798e-02
-2.992496449377752415e-02,5.790726684318668605e-02,-5.134809709152331203e-02
2.001782739831099375e-02,1.985038480165913707e-02,2.760651558667175792e-02
1.980610768564760107e-02,-7.009617901676907722e-03,-8.333264628366106319e-02
-3.758997019205565643e-02,-1.316683535961698549e-02,-4.078077231346002168e-02
-2.518929613829296379e-02,1.106977178004691503e-02,-1.767568890437951762e-02
-6.776544124802962032e-02,-1.974253369704123337e-02,5.914342207065140938e-02
-7.224665156525936216e-02,-7.150635137943995440e-03,4.206572466299030727e-02
7.295766391130939499e-02,-8.418759259480627574e-03,-3.073236403904322511e-02
-1.397476024210058364e-02,-6.429120575645028146e-02,-4.633584361261944458e-03
-1.419756175029127359e-03,-6.447930120013478650e-02,-3.813375646655405710e-02
-1.051435693598578094e-02,1.184056077807927286e-02,-7.223508912790867209e-02
7.328330163678930522e-04,2.332573524534476903e-02,1.197767698826734256e-02
1.008524087525358194e-02,-3.816763528368627423e-03,-1.180857324608368571e-02
2.393273392324256690e-02,1.866603464237461332e-02,-1.180385304350258912e-03
4.167835969321845302e-02,-2.936329551033319690e-02,-4.763938710900496136e-03
1.616961180425377162e-02,-2.136457877896066199e-02,4.888073842379882239e-02
-2.492539305647193532e-02,-1.603035003745270637e-02,-5.809978181220092075e-02
-2.996596024269427769e-02,7.120375610767696803e-03,3.289362383192163258e-02
-6.726280207378518283e-02,5.684852797549420911e-02,2.627129006099680059e-02
8.071095778089339839e-03,2.717294334360901079e-02,-1.950311926942147056e-02
3.314226493359354042e-02,1.584768800908091871e-02,2.239698571543910499e-02
-4.639380051268104585e-03,-5.707946927807058118e-02,4.189829052466743919e-02
-7.758010139418623427e-03,-4.395934648898545266e-02,-1.718826508083020135e-02
2.808571647549781142e-02,-1.784193339815418056e-02,1.940082047399903711e-02
-2.385336034698911506e-02,-2.860747273468366297e-03,2.452154946372996080e-02
-2.729958033354960151e-02,-3.025374540854608441e-02,-5.160851474864260047e-02
-7.433645971982235376e-04,-1.722214578220513173e-02,1.944481045532208893e-02
3.598733321949329836e-03,-1.358038263226865779e-02,2.812746634286375242e-03
-4.249149427819349373e-02,-2.318420920481601213e-02,6.089211873623680098e-03
3.243881789330679919e-03,3.554626171403741514e-02,2.719006207550375698e-02
-1.071795261005157804e-02,4.629123040311591136e-02,1.430059788762232630e-02
-6.986550666801828388e-03,4.522589351482179942e-02,-7.054796024662292331e-02
-9.305501506588393507e-03,2.746523232655452562e-02,-2.335558484020136549e-02
2.060967020289466295e-02,-3.155459810487747443e-03,2.692646515819212272e-02
-1.416180226330391104e-02,-1.767197223686583010e-02,-6.901098960718851649e-02
2.852605421730128321e-02,1.871752792347148101e-02,-1.084421221470178581e-01
1.091169152033147870e-02,4.707334627533995425e-02,-9.026044778650002542e-03
2.646803378135229382e-02,-5.443846197140236876e-03,1.502129315593918844e-02
4.598514805289390106e-02,2.095713862771929684e-02,-8.450473405352204939e-03
3.008758659766830323e-02,-2.697493667263161504e-02,-1.256479853199857569e-02
1.136276985273953653e-03,-1.861631783679830454e-02,-5.629887455339857572e-02
-3.624315882899819576e-03,-4.006437416957266823e-02,-5.147539674709791790e-02
5.682902387775278646e-02,5.733156993402222651e-02,1.124349865811445637e-02
8.544087619932281413e-03,-3.940280977914510652e-02,-2.918023136122801370e-02
2.269404928396302756e-02,1.314677698482649704e-02,-2.716961705993283308e-02
-7.309662640084751235e-04,-7.768680844788475315e-02,-2.334632908578252244e-03
5.246465848012393449e-03,-1.372267436912700395e-03,2.317768352400984000e-02
-6.636638485515385100e-03,-2.111082091674686481e-02,2.988445306540093386e-03
-5.786630732649943737e-02,-2.548484945857093335e-03,5.815873515698121408e-03
3.567275695376707217e-02,-4.794828865028054506e-03,5.305822032253051934e-02
-4.619915653811391965e-02,1.157264740920299281e-02,-2.424276388132744209e-02
-1.726658116565244492e-03,-3.553552602624289458e-02,-1.613492985021078643e-02
3.963248175017087573e-03,8.322473656364963446e-02,3.522421873110445634e-02
5.074369948586331808e-02,-6.839173663935544170e-04,3.294015563483686238e-02
-6.627233233040028849e-03,7.879896146399608531e-03,2.401431325488079249e-02
5.163993645120792259e-02,-3.091898996508163702e-02,5.807635353667916361e-02
3.268707694878920933e-02,1.890730308858284275e-02,1.649812017909195808e-02
-6.158287347270571810e-02,-6.396662053458233854e-02,-1.755690703141768796e-02
3.328552167264627742e-03,-2.886448343850784790e-02,4.657551900740807579e-04
9.970252872052837168e-02,-6.935265389173000949e-02,-2.382899835156428517e-02
6.240645753246745319e-04,-9.171386628152181433e-03,-6.132006887205330298e-02
-3.313553105152287209e-02,3.934481870853836355e-02,2.838970396097655231e-03
-1.442900558065143488e-02,2.679226469577222422e-02,4.420727237867709547e-02
-4.868412270792730340e-02,-3.864236498281457127e-02,1.441735381144235856e-02
2.931914779641435140e-02,-3.352353778442120069e-02,-2.102083814844740717e-02
-1.986087974942149850e-02,-1.359052153276335204e-02,2.917439843980814546e-02
1.984703718658984567e-02,2.890635327363617196e-02,-3.942803163203714018e-02
8.751914749778522129e-02,1.242721040690909946e-02,5.269620434079493737e-02
-1.640006553700388333e-03,4.131549802566521212e-02,2.414206125859159197e-02
2.346591873367809625e-02,-5.449319221710279253e-04,3.529321443942261272e-02
4.057612974277887558e-02,-3.387169864464396191e-02,3.238872219917892509e-02
-3.628025026878155257e-02,-2.923174326785545063e-02,4.534809151891527196e-02
-2.210810955404065442e-02,1.818046869794621295e-02,5.354366893189963644e-02
2.596726924475711504e-02,2.047138726677690673e-02,-6.028457313878540433e-03
2.099593022120667049e-02,1.662120014856254338e-02,3.725306367169544525e-02
2.629710399407437713e-02,-2.040894471444363104e-02,2.423153784574891279e-02
-5.473595132802273194e-02,-4.601530584294588611e-02,1.444011288107779553e-02
6.990014527430431918e-03,-2.591322498011829761e-02,-3.291005190149901699e-02
-3.692150664805930044e-02,-1.173565376572368105e-02,-3.958960946923903435e-02
3.272503950561050402e-03,-1.564202051705706554e-03,-8.788721120186677657e-03
-8.148251365533210056e-03,-4.624819401900287508e-02,2.034805028394706672e-02
2.014336252958292064e-02,-1.635147187232206464e-02,-1.926252152546316333e-03
-5.335867998124443901e-02,3.110168787961004738e-02,-9.686663500777780225e-03
-3.268345586454565743e-02,-2.719665642438015216e-02,-4.316661670590013489e-02
3.985431503239583728e-02,-2.486500135552865043e-04,2.374281801967155492e-02
-1.110158844466554301e-02,9.067001230559061306e-03,-3.094908386876045470e-03
1.214501720013071509e-02,5.352919010263512689e-02,-1.175379575038015822e-02
4.108800183169198685e-03,-1.562513869345438094e-02,-3.954338308276907771e-02
2.133215815334729704e-02,-2.249523443857500554e-02,-6.211417200467199591e-03
3.543372628444963618e-02,1.179107796317281631e-02,1.093950982917149886e-02
7.974930947539354831e-02,-3.899798954524827388e-02,-2.443400658856959354e-02
1.276846898856573431e-02,-5.200709409692976654e-02,-3.726279579938554087e-03
5.095300807953189598e-02,-1.901115811615929421e-02,1.401097872463009930e-02
3.659661015486872018e-03,3.382871696419150398e-04,4.965396001129049504e-03
-1.952003253239408724e-03,-1.061556377491533476e-02,-2.666811602557118618e-02
-4.172681979981600342e-02,1.491772361459467802e-02,-7.966867642760513957e-02
3.296340788684735262e-02,-2.495040166220157188e-02,4.509351672301486341e-02
-2.411231964876070152e-02,-2.457006779005433891e-02,-2.305580396027721857e-02
-5.704189079606879209e-02,5.415724536968682945e-02,2.952260492486715425e-03
-1.796621060736859968e-02,7.003880366766092325e-02,2.528385680016096565e-03
6.826906937133918850e-03,2.107661334930284458e-02,1.533473928119748024e-02
-3.509440028162981451e-02,-1.133839415838763624e-02,2.280391127767531639e-02
3.672260369356590559e-02,1.821866286268811891e-02,-2.785343224760072553e-02
-3.576140526954963567e-02,2.441639511879846805e-02,2.000885682462199069e-02
-1.073365800361625599e-01,-1.134218162997594577e-03,-3.013981117608264398e-02
-1.628342237136172835e-02,-3.219132389593509346e-03,-5.508658746529566941e-02
2.076919694496686189e-02,-1.036034604343811019e-02,4.621924195980165601e-02
-8.019286247233857468e-02,9.042449425573745314e-02,-8.624556442224289021e-02
-1.721067866173582941e-02,-3.337933909370634222e-02,-2.464926921380915237e-02
3.149157565867313074e-02,-2.620976292338737107e-02,-1.643949344153867662e-02
-3.559971683404621057e-02,-7.251331785992709555e-02,-2.173119224048155121e-02
4.548426541515049326e-02,-3.394850984537942790e-02,-1.589341486753076188e-03
2.248984844179042694e-02,-3.276539922025704238e-02,-6.157364047995115934e-03
1.597704481578968464e-03,1.095495932399433159e-02,9.225363507117655473e-03
2.562158664808555225e-02,-3.272203071572549887e-02,3.300449594524573760e-02
1.460972911473366193e-02,5.512390461663951684e-03,-4.495174210746723936e-02
-7.817532649824929236e-02,2.416294804650894260e-02,-4.097488876805074204e-02
3.599650911210935944e-02,-1.614299164790927721e-02,3.902434008594864862e-02
-4.423706531930061969e-03,-1.280782372208027695e-02,3.642177718731132250e-03
2.994800557289536286e-02,1.012874999854803705e-02,-3.015566214393334481e-04
3.429874043932322480e-02,1.593843072268331593e-02,8.215522087458836109e-02
-7.456556476210278277e-03,1.007356892060426792e-02,-9.457128118401181283e-02
-1.365456503562691680e-02,-1.487436800632070504e-02,3.606852423275750189e-03
2.977373692305278555e-02,-1.588420999083916749e-02,3.503452536009359075e-03
5.877815854500604426e-02,-8.448889909659053343e-02,-2.377545257112172183e-02
-5.280373717966496683e-02,-3.086200819032073120e-02,3.459778959298292350e-02
2.137471063637112409e-02,1.188712396715380093e-02,-1.532267310324457454e-02
7.133092638018661722e-04,5.030225981196718640e-03,4.932131006402397377e-02
7.043535457458108273e-02,-2.759215471855211779e-02,-1.210097700787996118e-02
3.168189746447867133e-02,-4.428586279658103253e-02,-2.041361569529002301e-02
-1.178460833787717613e-02,2.693553011803419273e-02,-3.687997106267206643e-02
-3.616732037689709967e-03,-1.733691203811325117e-03,-9.201324547316381761e-03
-4.186751009109650895e-02,-5.971957071729755429e-02,-4.327579971860455628e-03
-3.865184922756542685e-02,6.597716122889936939e-03,-2.035835273877402082e-02
-1.503804997256014478e-02,3.626711374837646856e-02,-2.710354077065609316e-04
-2.937340099776249158e-02,3.648095061304908876e-02,2.651766612453247685e-02
3.320202595902149723e-02,9.993490795909049096e-02,4.026907843922385155e-02
-4.464656556408100330e-02,1.009277113472894713e-02,2.234220672970870306e-02
2.527910940916402310e-02,8.200621257202281560e-04,1.381785307718286226e-02
1.009656851609324821e-02,3.548427668956671138e-03,3.343359165352988160e-02
-1.026073802420875147e-01,-7.507305675763071076e-03,6.447664050330554480e-03
-4.683069258491368014e-02,-4.373544449286204637e-03,-1.661531361175454247e-02
2.621985903234005585e-02,2.053128816031268150e-02,-1.522610391587516168e-02
-4.241096663038822906e-02,-5.060734849554549691e-02,1.445952711430326674e-03
-4.990441690769929078e-02,3.172624827225561939e-02,-2.392139751508035386e-02
-6.655839861353476938e-02,-3.923228004756654230e-02,2.878280715063546991e-02
-1.055034625576855255e-02,-3.727695001129917307e-02,2.112967005496342240e-02
1.190097132011536107e-02,1.197207927500070108e-02,1.844479365237872495e-03
-1.141752317091912841e-02,-1.978773016604337340e-02,-4.021755917282803655e-02
1.846798929721408036e-02,3.081185602748379507e-02,9.081822626683253019e-02
3.537397084675833470e-02,5.371723477658580520e-02,1.524820377014482475e-02
-1.009122376347768588e-03,-4.319608077824470954e-02,-8.565416080849057659e-03
-2.516537535870744940e-02,4.570879070701782017e-03,-6.270745531749491453e-02
-6.718774975448639671e-03,-3.537893843291149438e-03,-5.353865775098546297e-03
8.262624921711633763e-02,-3.081553106638577205e-02,3.882315775358868154e-02
1.430298443774531171e-02,4.490194731496620351e-02,7.951933185250367742e-02
-4.322411011583922325e-02,-4.614156129916020810e-02,9.512751065028972330e-02
-2.589585452620805917e-02,1.872734232722051903e-02,-1.795207614513381553e-02
-1.058711731444433347e-02,-1.188854647846672094e-02,8.208499982745689691e-03
1.840442632876788595e-02,6.005108471680072058e-03,3.815831230401301333e-03
-9.442378794319616561e-03,3.876818099272799634e-02,-6.276741287462306307e-03
1.156855876653640515e-02,-1.088022621454800415e-02,-3.109334052369836301e-02
1.481526039545319820e-02,4.291274987038912192e-02,1.215763927540599448e-02
-2.616190261972893907e-02,-1.181235146758728531e-02,-1.071575013870727962e-02
-3.460849757452540143e-02,9.125545062442171063e-02,-5.361167130145715054e-02
3.613278681716729918e-02,4.603617490720562228e-02,-3.455319658122905924e-02
-3.105934366316419684e-02,1.057149956287692545e-02,-2.051961718909333168e-02
2.227889919886042597e-02,-1.426088076389453625e-02,6.068103700748531289e-03
4.618115517975123732e-04,-6.707029384708620978e-02,2.043413889088711161e-02
-4.533939656184791250e-02,3.726842578780542592e-02,-2.922148182913711020e-02
6.093768267099453767e-02,-6.482720859506994893e-02,1.161334048135390269e-02
-1.638144583196342666e-02,2.929782737197310707e-02,4.967444555134212930e-02
1.654610183575495538e-02,1.524497375012594247e-02,5.180002472468300811e-02
-1.004049630514882753e-02,-8.888912508983819183e-03,-1.714697257578341738e-02
-7.375063505351363465e-03,-1.558301714523032712e-02,-5.485490628450112593e-02
2.903627201903841853e-02,-2.741439860736191031e-02,-3.957543762946058585e-02
2.995314761669497575e-02,5.000409570666573128e-02,1.941772212269013420e-02
-5.659728267479775116e-02,9.197992030943256524e-04,4.902001328028690597e-02
-2.955741161571381068e-04,-4.596386503068452395e-03,-1.471999583630418176e-02
-4.827494689196526467e-02,-1.718959627424961750e-02,2.235471647562848815e-02
3.972792910826875024e-03,7.573100323794295340e-03,-3.810875411976794719e-02
-1.134442689004409345e-02,1.416679081592228488e-02,-1.827174463259157236e-02
2.938193123629539993e-02,2.653450830579268810e-02,-2.370913389273240565e-02
-3.253360432645806266e-02,-1.480006345579535330e-02,1.693203769645609943e-03
1.939870159662418145e-02,-2.065029467395297635e-02,3.933070898788735420e-02
-9.836448868663662942e-03,-1.881442727584981336e-02,1.521900353007510191e-02
2.697069474061729311e-02,1.735232199047175364e-02,5.186446559696232528e-02
1.525924299173882746e-02,-5.313436149921162144e-02,-2.657253869216360739e-02
-6.671221379064043444e-02,-1.325883740446760252e-02,-4.486175117282017316e-02
-5.384246717916087166e-02,6.135838419471224825e-02,4.898777631489402429e-02
3.354865518173405503e-03,-3.548669370518531263e-02,-1.922199275639134433e-03
1.912787772874199183e-02,4.907700688806961725e-02,-2.628224421844795392e-02
5.464157736481518868e-02,4.410341562721802749e-02,1.639415939422351684e-02
3.528033861098847038e-03,-1.814781781849168774e-02,-5.368195624851988812e-02
3.333481063684485407e-02,-6.384309430480872294e-02,-2.283403038298147461e-02
-4.332561468282434408e-02,2.881718859054293799e-02,1.384685642944489745e-02
2.924852936688175642e-02,-1.882316770859885496e-02,-6.094265191554800593e-02
3.755931389687508504e-02,-2.307667469800267924e-03,1.293864906431910038e-02
-5.275494407088530263e-02,3.663872741247777010e-03,-1.989819829675346444e-02
1.836328384545120318e-02,1.216266356135805166e-01,1.395634197812279514e-02
-2.760062783053876534e-02,-3.032245909051332899e-02,7.507181925556948715e-03
-6.717831976258981097e-02,-2.798138060760966411e-02,2.020096667487856351e-02
-2.016114868123995013e-02,5.347797261483717979e-02,-1.623062074577714259e-02
-2.673530608568764830e-02,2.511263129795287749e-02,7.918652599298281469e-02
2.356576278532676941e-02,8.096859688935736238e-03,-2.006693632284678452e-02
-4.228217549774830608e-02,2.970209327514147096e-02,-3.720431130324732081e-03
1.214130908375862274e-02,-2.008888656964363079e-04,4.690590398678053802e-02
6.547961780728587394e-03,-2.315956984886688441e-02,-4.523496457534038201e-02
-2.606968598724208538e-02,-4.429487202752535602e-02,-1.634437025646351058e-02
1.995206655909733187e-02,1.495140660711532631e-03,-5.071296056003710834e-02
-2.662337738884571967e-02,-2.459266985011634987e-02,3.490843599474978409e-02
-2.250263198885531224e-02,-1.146827210851974164e-02,-2.338964863066370775e-02
4.689645694735947168e-02,-2.903691224249908050e-03,-8.287829955249391423e-02
-1.984559340001364539e-02,1.779397966940712492e-02,-2.474326765761164764e-03
3.640081727045145488e-02,3.217078547919764719e-02,-6.828890204150443732e-02
7.308766599271748765e-02,2.072888559993934718e-02,-1.160227681613113133e-02
-3.665047567563990000e-02,1.619865660957258910e-02,-1.795348432076040654e-02
-1.447450737218241787e-02,-1.398346421156295045e-02,4.921274023155865207e-02
-3.966660936041707664e-02,4.501798996536998665e-02,-5.913929581796674440e-02
5.864082213517404774e-03,-5.385823829115778290e-03,1.000090006241114056e-02
4.623801795691384608e-02,1.521022383006024811e-02,-1.374137588243345195e-03
-3.088932162065729289e-03,2.799353339074518027e-02,-1.496826738411798086e-02
1.500511177950665000e-02,3.782837474275131673e-02,1.440685114955973962e-02
-5.111426170729424512e-02,4.345842899242902818e-02,8.368281582061596821e-03
-1.016862591553902365e-02,-2.037379655016395216e-02,-6.680198902321773935e-02
-8.662818717236092647e-03,-2.388541336730831688e-02,1.483309144149871917e-02
1.465539068360573009e-02,4.962775903345139489e-02,-2.081392903374395045e-02
5.907292900743820602e-02,2.614514568481498494e-03,-8.991961630224698521e-03
-2.216879139699906229e-02,-4.098139289416122960e-02,4.815798065159187374e-02
-2.302213798708900236e-02,1.432837032661812837e-02,1.558478793612003317e-02
-5.033365349197963662e-02,4.090238396211380578e-02,5.561507825350655437e-02
1.249143489276180984e-02,5.435815937090879811e-03,2.814732057474002985e-02
-2.797314895320465039e-02,-1.759200135664264891e-02,-7.092370303480148575e-02
-6.399045988460148882e-02,-1.232774951343107959e-02,-2.108766608248751478e-02
-4.155839928666084371e-02,-1.962376764271697716e-02,1.326615828736421934e-02
1.271334775512140015e-03,-5.322531593698939800e-02,-2.933854943829619991e-02
-2.421111580759400042e-02,-1.644462546555584478e-02,-2.901700563758794968e-02
-4.896687702552715571e-02,-8.662200981197517441e-03,2.095754756536643421e-02
-1.428839804568200235e-02,3.626643189377404958e-02,6.974460216567479609e-02
-2.688600708807983158e-02,4.046125555288281050e-02,-8.392993868814591085e-02
-4.589306419430468076e-02,-5.607816909863745647e-02,-1.170371152742027965e-02
-8.528948533061466233e-03,-2.617280850210215726e-02,4.586349395911900467e-03
-7.335173904545758128e-03,2.519771848687030451e-03,2.785623599262404201e-02
-7.626208832340306693e-03,1.939803040773447132e-02,-1.592761249637849935e-03
-9.136294227690577863e-03,-2.150605178598835945e-02,-2.423973057147231144e-02
6.207475915883991363e-02,9.887389006665412859e-05,2.715474441297976646e-02
-3.143118721866322574e-02,-4.642122874375999297e-02,-1.778442196441783066e-03
-5.047740170369561553e-03,-5.627146235409278413e-03,-5.442938523948712831e-02
2.392763263156738596e-02,-1.662769071939233442e-02,6.403972235376183784e-03
-5.372243033788816000e-03,3.086393413345657477e-02,4.488398167695014556e-04
-6.740551686767555506e-02,8.114151300056555993e-03,-3.375417546017047549e-02
5.499446331439110380e-03,-5.811338633229953810e-02,-2.705143927778032656e-02
-3.777101765479391055e-02,5.672345016463033185e-02,9.736560767597849872e-03
7.776024456124634894e-03,-3.108374539651527144e-02,5.211659284514983531e-02
-1.510123738866285363e-02,3.699721178342773448e-02,1.495076499642765226e-03
2.081971932068329978e-02,2.767360957940522004e-03,1.692262953210865381e-02
-2.981457084934408669e-02,8.137358122826833517e-02,-3.736544428774587340e-02
-2.284240075643058712e-02,-6.993642558873881809e-02,-2.912658749866926626e-03
2.433895945676664216e-02,-4.236824447682177586e-02,1.048170392665332025e-02
-3.015851429592330754e-02,3.911282910421089859e-02,4.787112640737607554e-03
-3.376529432140600723e-02,-1.677599425966098956e-02,1.007216619416979181e-02
-3.979658640269343253e-03,4.460205364749725981e-02,-2.360399288948912544e-02
-1.712210687302511553e-02,6.017814178461708408e-02,-2.327324367114413928e-02
6.674770320827725506e-03,-2.360778948628925247e-02,-4.650708737745434113e-02
1.413333714108788025e-02,-1.057764572039072287e-02,1.241071311627583713e-04
-4.169795136121725448e-02,7.976585372856163925e-03,-2.954405882928490268e-02
-6.938918940174802763e-02,3.865563634949197719e-02,-1.870217853669421323e-02
-1.269505376509282718e-02,3.344360890929376495e-02,-7.183875615597600829e-03
5.744539991491222353e-02,-4.185328386192151140e-02,3.884157149694186101e-02
-1.966436132421209293e-02,2.147571841386294172e-02,-3.535777714503084146e-02
-4.389591631691460577e-02,-1.622807171275011950e-02,5.559438165710341162e-02
-4.141254346406118142e-02,3.546775251812814278e-02,-6.866991078456308184e-02
-3.369019720594228912e-02,1.025102496847685347e-02,2.704325970176358479e-02
2.566015440440240145e-02,-3.907618565972246355e-02,-2.884123844333457559e-02
-4.981404413319716340e-02,-9.708229124261226820e-03,1.835410936218744233e-03
2.991847986564069584e-02,9.200488560098472532e-03,-7.130636887810586078e-02
3.120240246297661252e-02,2.991557421342222120e-02,1.355540524671765799e-02
4.872752365475895020e-02,9.108608443487511280e-03,-4.291685660201093738e-02
1.435394620559374800e-02,-1.374357143153971499e-02,-2.116966791252768848e-02
1.359080190898291109e-02,-3.997801903642294458e-02,-4.529121329962082498e-02
-3.156844813630822560e-04,1.274434680808555001e-02,2.433900024669371012e-02
-2.991359064468163305e-03,-3.959742413614134732e-02,1.900731119255218236e-03
-5.620655469475048689e-03,5.413899707465108513e-02,-7.186846402804294466e-03
-1.500568825439851754e-03,2.558791769127010188e-02,-2.645398790619612334e-02
1.105340839759907587e-02,-1.975148508408321180e-02,1.781851994228452699e-03
-3.503545960331047593e-02,1.801832266417575240e-02,-4.728708048852740126e-02
-1.252244347142130419e-02,5.117283122736678014e-02,1.320686148328365991e-02
-2.505532207604604933e-02,4.302139240254395508e-02,-9.943345389585939165e-03
-3.255568708513853493e-02,-2.023440866403627622e-02,-5.574603274309609773e-03
-7.995883661549700594e-02,-5.441566658452355598e-02,-1.207598105644240756e-02
-3.712886094722124553e-02,1.617632193037882998e-02,3.589243939987741411e-02
2.659669785782419957e-03,5.660645462539999964e-03,1.769025040990421238e-02
-4.011284115982290122e-02,-7.259705615798124623e-02,3.694774048400167876e-02
1.316570433376540103e-02,-2.576256491316699531e-04,-2.894190922770645269e-02
-3.816083665174903935e-03,-1.007998739810939959e-01,-1.467137699699752433e-02
-5.763365579311561376e-02,1.791762183215737589e-02,1.389339894180182701e-02
-8.951106688232816563e-03,3.362713980649672391e-02,2.780360627623787960e-03
-5.967534359639086773e-03,6.757009109355499588e-02,-7.853003162713126720e-03
6.358108546375587471e-03,1.223218277573874871e-02,4.494366909624239285e-03
3.924819589394741570e-02,-4.751796813270441067e-02,-1.164788045196676197e-02
-2.174078964630342392e-02,-2.147311428966620916e-02,6.341093260372722418e-02
1.891053732277168248e-02,5.576539371503168308e-02,-1.513440077501742274e-02
4.704335336492276864e-02,3.383179491689024959e-02,-6.506321331531086027e-04
2.083334146408287804e-02,1.698976977571890756e-02,-6.098865851211571903e-03
-2.294439217148685345e-02,-2.534679393128902013e-03,-3.079915554623149226e-02
-1.751302992953662416e-02,-7.952772158777311751e-02,-2.446296260933769617e-02
-5.863426117552567735e-02,-7.054138193034004134e-02,3.202696386285933811e-02
-1.973381191118937696e-03,2.454644587149108423e-02,7.422424326919434268e-02
-8.083480554461525136e-02,-2.970743460245598225e-02,1.117014812087870415e-02
1.238839900789255946e-02,4.593835007797625325e-02,1.437322643649024609e-02
-2.292678229661454514e-02,-1.264647943337139646e-02,1.864154803591161133e-02
3.602731916313321042e-02,3.290730777655986178e-02,1.251334297838637387e-02
-4.592833912181636807e-03,4.061245620591052985e-02,-3.579349001823715209e-02
2.028574419078972915e-04,-3.199463124898935945e-02,-4.948993756639856467e-02
-8.820569253878852295e-03,-1.567515672650060879e-02,4.611603995632144321e-02
-5.219745318166944424e-04,6.325707778359287992e-02,-1.751581805878882347e-02
5.761739363115338936e-02,-6.408508324867916162e-02,-3.379300385726656530e-02
-5.030425103122388580e-02,2.337394042257750007e-02,1.550749088300569685e-02
2.875519152475602275e-02,-2.909692624371669825e-02,1.927134002678438165e-02
-1.904672098807558972e-02,6.207570056524753382e-02,-8.850702582483059577e-02
2.987356922132635914e-02,-8.353052362269038078e-02,-2.726745777773024321e-02
5.190760275071181536e-04,2.444788361352876263e-02,1.592131289840671357e-02
-2.574352163550583036e-02,-4.852542226300776348e-03,2.116338165484756353e-02
5.088198218066867888e-03,-3.867876616829524911e-02,1.027044243919627946e-02
-2.052825169587982335e-02,-8.838154423227937914e-03,4.222075390726953703e-02
1.060230513643598167e-02,2.628179362697973670e-02,-3.780748436744937185e-02
-3.132751132501630786e-02,-3.114095258026396834e-02,4.672836126165139190e-04
-3.234536542936145009e-02,-3.799519812413380826e-03,3.416124180429795654e-02
1.248487342163766556e-01,-9.164447925290327909e-03,9.157321977409718650e-03
-1.461522015110043420e-02,1.472857541134609677e-02,1.861904214216455501e-03
-3.922212913480304514e-02,8.228542303320382847e-03,-2.532461996394164486e-02
6.015170918538551709e-02,-1.064691822046508543e-03,4.187112462443946109e-02
-3.113874361603270746e-02,4.585914701862848185e-03,4.991946095446065691e-03
4.030813413437427800e-02,2.076530429182087481e-02,2.196971710177055004e-02
-8.364766998816905094e-03,4.199456244384901921e-02,8.711789022089374765e-03
3.045910589667359322e-02,2.709995455797482161e-02,4.983061719219038926e-02
6.194823438658685066e-02,-3.476704810699237508e-02,-8.526712158864421798e-02
-2.150155492641249444e-02,-2.319846169528875374e-02,7.807306717239388509e-03
-1.475409523391312851e-02,-1.218877718529092630e-02,2.024392929409083580e-02
-5.346290433576589285e-02,-2.419730994313038994e-02,1.501757129784530437e-02
-1.995473594707695281e-02,-1.097772519479814704e-02,1.462650790593314791e-03
-4.721988436039823572e-02,-2.004345060622437016e-02,1.485854912376236459e-04
6.169923610803586429e-03,9.244427532979546504e-04,-4.036611103493696617e-02
5.092019731839152880e-02,-6.890169134726477178e-03,4.534620398674055891e-02
1.946437080271529868e-02,-1.251057743795105925e-02,1.442565855763597304e-02
1.528137850956966942e-02,4.355016158214047167e-02,3.110515890482186754e-02
-4.434870375646488699e-02,-2.320379443161069491e-03,-6.026199671133287278e-03
-4.179850096290411987e-02,4.417417530507049273e-02,1.325670710467651003e-02
-5.248354298181848870e-02,-2.947539493889629950e-02,2.844703885863340831e-02
1.508877566081272270e-02,-9.172031812134122733e-03,1.800508107025093618e-02
-2.468339331022438229e-02,1.615024499664933014e-02,6.443852061550856556e-04
5.118399240292227127e-03,-5.309875516754539171e-02,4.139535988159238900e-02
3.036131542686532764e-02,6.189633151555400808e-02,-6.029812001714636091e-03
-9.620166260262099506e-03,1.753270582089190566e-02,-2.006730775937090941e-02
8.229648847829507119e-03,-6.831188185939485180e-02,-6.210373674443317102e-03
-3.404298921974869413e-02,7.271366045724383942e-02,-1.907684066615570467e-02
2.993735241980258199e-02,3.554946440741909436e-02,-5.639651814974986016e-04
5.491689962527777219e-02,-2.831725824066449668e-02,-1.964677468698861756e-02
-2.617932971817723067e-02,-1.135322397545363363e-02,-4.607227155352802000e-02
4.200266915754223562e-02,2.318268979502863605e-02,-3.942470130538913882e-03
-3.912327600025496122e-02,1.329781685262210189e-02,2.477290429278822606e-02
-9.977651113401849250e-03,-3.100790484378820530e-02,-1.996434968049585340e-02
1.219888818212610214e-02,-5.625325483634131818e-02,2.701362418834895793e-02
-4.215505527185386958e-02,2.180818136717894984e-02,-8.849499842238679748e-02
6.977207365266145482e-03,1.411878575824337956e-02,5.909762939387770003e-02
3.707662221586938145e-02,3.488204281511506077e-02,-1.832205392234081617e-02
1.046106324301693952e-02,-1.166454963752868758e-02,-3.639686565932883505e-02
-2.543291643754014286e-02,6.636721110983855032e-02,7.033286751687616023e-02
-1.118774973957151544e-02,2.340184655738264743e-02,-7.050326961161751393e-02
5.835714420749025383e-02,-8.115345399147801120e-03,3.441761879288410958e-02
-1.962994144794775672e-02,-1.953856815824997137e-02,-2.016079548008579275e-02
-3.185792882934783236e-03,3.831731123878322903e-02,-1.243894772067324211e-02
-2.976154887871962709e-02,1.700584741827277507e-02,-5.597683732720170474e-02
7.439285692544047625e-03,-2.314493596446308074e-02,4.055876358438562784e-02
-5.965369729740399932e-03,-2.486876466793817853e-02,-1.615625275840448447e-02
-3.882438229643562361e-02,4.778423783280053710e-02,-2.272352821959341268e-02
-2.398277301574781861e-02,-1.597847850708798353e-02,2.017664322932323853e-02
-4.723350764171659402e-03,-5.392569382867878902e-02,-2.345530227691393008e-02
-1.657519284462544151e-02,5.357977332228461634e-03,-3.997325354552015708e-03
-1.878674315620786983e-04,4.188413210647001783e-02,-3.830237097740489538e-03
-4.475699072175292476e-02,4.422154184770676379e-03,4.642001290432053173e-03
2.466516119310394224e-03,2.024524184342022318e-02,1.145707747112992801e-02
-7.152147349272103619e-03,-3.362930129382152300e-02,1.694420976484603547e-02
-4.054612752126256214e-02,-6.257860766764927751e-02,5.980645245426244316e-02
7.041884766469424378e-03,1.007439449952553592e-02,-3.717926424477399627e-02
3.886341833174547511e-02,1.697768082027673736e-02,4.214278135930720620e-02
6.647764056797965393e-02,-1.310568999642294308e-03,1.899511252810258399e-02
1.028242878659397543e-02,4.614896149272158105e-02,3.399080719328959749e-02
-2.563848298431584648e-03,2.088985764663309555e-02,4.557884264437776778e-02
-6.097592956770698375e-02,-2.577045605210569537e-02,1.696257328909443404e-02
2.481958652865380588e-02,-2.092614842880434825e-02,6.054396173651769263e-03
-1.340335566008855894e-02,-1.209884733279915914e-02,-8.810681422489557990e-03
5.022299700606082731e-03,1.047232195189900204e-02,-2.903923117499560523e-03
-4.114115398306937565e-02,-2.049666567020966973e-02,1.944940848658073887e-02
-2.355179385088301477e-02,1.556551793502623099e-02,-4.845860384992602132e-02
-4.622983559841790935e-02,-6.132909437349564480e-02,1.052289518771100212e-02
-1.988959576025771392e-02,1.594214138414233595e-02,2.473976349404906350e-02
6.462121762811859176e-03,-1.283606331152188206e-03,4.516207809664238987e-02
-7.588758362350916942e-02,-4.537711302055816298e-02,6.797826512852617187e-02
-1.435649897975982241e-02,-2.463990741330718617e-02,-2.051100992790187705e-02
2.229197708004660924e-02,-5.364542768675909651e-02,1.662113812371108709e-02
6.550279329534404449e-02,5.282927561902590543e-05,2.249171675116955205e-02
-4.442417634866670934e-02,3.159643929372636662e-02,3.324745554743656351e-02
-1.186631439901017840e-02,1.791303257100929081e-02,-2.652707697089561403e-02
2.753130659006150505e-02,1.220985803374501598e-02,-7.538934757318524471e-03
1.577218891056869979e-02,-1.796653845326809731e-02,5.170500256518815313e-02
-2.827952173771559538e-02,-2.141181423626585187e-02,-2.839568562951938838e-02
2.560093979904761938e-02,-6.389900341700264011e-03,2.576990256181982061e-02
-2.195562322665916416e-02,-1.094014104316656799e-02,1.969503003073759528e-02
-4.134003432892466301e-02,-9.289093591149811396e-03,1.918333080442113925e-02
3.394364047616261603e-03,2.015828039517883127e-02,-1.845042190537195259e-02
3.193135046443664610e-02,9.374816379219103827e-04,-2.598567111082879938e-02
7.334714033918030007e-02,-2.857649104873484849e-02,-1.974825124626720246e-02
2.150593373634368186e-02,-8.997937281573978666e-03,3.325703480893402175e-02
-3.098927847297530767e-03,2.790423593975862107e-02,9.810518651569247617e-04
-9.004836704364004019e-02,8.163495834621309344e-03,-3.011250555511621983e-03
-7.993279099036221247e-02,4.135584743642849132e-05,-1.593302157963570262e-02
6.873314680858903791e-02,-3.230037267970905374e-02,2.395127564393353947e-02
4.833805898886129465e-02,-2.483812421623709209e-03,1.442449058555809495e-02
2.106946820984496871e-02,-4.803281150985262704e-02,-1.993404894479277809e-02
-6.410529907744917308e-03,8.024279872825341997e-03,9.203498008395739893e-03
5.821618243084266536e-02,2.272832189893618862e-02,-1.273517018352736049e-02
1.613710814688243053e-02,1.836114745680886978e-02,4.238102263805832576e-02
3.513862346933601527e-02,1.825577544688288673e-02,8.481685074210706249e-03
-2.396791557184883500e-02,1.855577018589953109e-03,-6.115765361269514394e-02
1.433246256995783854e-02,-7.260954529605113950e-02,3.498708708466558015e-02
6.362849226768261569e-03,1.610575748154766812e-02,3.559399300833843843e-02
-1.353621391334788697e-02,-3.119260677259128381e-02,4.383323374275968458e-03
-4.301012829057092313e-02,-4.134586750310676427e-03,3.304509605046552362e-02
-6.117769365204851761e-02,-3.002420796824567268e-03,-2.569190303239270168e-02
-4.463776528449316452e-03,-8.333092437486587165e-03,7.048343157756090625e-03
-1.785554648244363357e-02,2.739300009043243219e-03,1.345973164513008559e-02
6.240717861375934261e-02,7.029733696262882581e-02,5.831693497580960062e-02
1.253081449627771980e-02,6.580836491775592101e-02,3.672031303115655398e-02
-1.362152469928340839e-02,3.877891885417906331e-02,-2.086860994535966185e-02
-6.921010971286926938e-02,-6.310332253688585857e-02,-1.373861373325425787e-02
-2.308489532515179549e-02,3.121440999988916391e-03,2.216198171671261360e-02
3.760133254620069004e-02,-2.569412020276163472e-02,-8.709608033610821351e-03
1.383567063050472785e-02,1.252617260243954825e-02,6.061344808316604382e-02
-7.758099934703172572e-03,-6.315973187114975324e-03,-2.354957919255896287e-02
8.945638792919898691e-03,7.426615602307633582e-03,5.625942820177293885e-02
-5.605510308180198555e-03,-1.710805576912352577e-02,3.952046506482633642e-02
1.747836676753057247e-02,4.997007649687945294e-03,2.939569215596949184e-02
-1.326626397062967248e-02,-8.984334875534549791e-02,1.490411135105337501e-02
1.558612756570249697e-02,5.712628471361003851e-02,3.035021368032048833e-02
-2.893305781389891862e-02,-4.410606377038952218e-03,9.272495630086920529e-03
-2.207458070280617426e-02,1.657568013921520509e-03,-6.455618451289322525e-03
3.990327975108248770e-02,5.234809327794298639e-02,-1.221474932453116106e-02
-4.492877191655200719e-02,5.671839319041061672e-02,1.551286097647184940e-02
